File: public_html/data/backup/makrolon-violet_402.csv
wavelength_nm,intensity,intensity_smoothed,,wavelength_nm2,intensity_i0,intensity_i0_smoothed,,wavelength_nm3,,transmission,transmission_perc,transmission_perc_smoothed
173.232,23.896,#N/A,,173.232,26.024,#N/A,,173.232,91.8229,#N/A,#N/A,#N/A
175.084,32.729,25.6179,,175.084,37.766,29.5889,,175.084,86.6626,0.865792,86.5792,#N/A
176.935,36.637,30.0668,,176.935,39.857,35.1131,,176.935,91.9211,0.856284,85.6284,#N/A
178.787,34.272,33.0232,,178.787,37.584,36.6576,,178.787,91.1877,0.900856,90.0856,#N/A
180.639,35.999,34.4726,,180.639,37.128,36.8855,,180.639,96.9592,0.934583,93.4583,#N/A
182.491,34.725,35.1651,,182.491,35.582,36.7372,,182.491,97.5915,0.957207,95.7207,#N/A
184.342,37.36,35.0243,,184.342,43.491,38.4251,,184.342,85.9028,0.911495,91.1495,91.0225
186.194,38.45,36.4625,,186.194,45.403,41.4134,,186.194,84.686,0.880451,88.0451,91.4172
188.046,41.085,38.6541,,188.046,44.584,44.1242,,188.046,92.1519,0.876029,87.6029,91.335
189.897,36.63,37.9089,,189.897,43.31,43.8577,,189.897,84.5763,0.864361,86.4361,90.5045
191.749,38.629,36.3437,,191.749,43.4,43.6501,,191.749,89.0069,0.832615,83.2615,88.5186
193.601,36.082,36.7801,,193.601,44.945,44.6684,,193.601,80.2803,0.823403,82.3403,86.3452
195.453,27.99,34.0869,,195.453,40.853,43.7579,,195.453,68.5139,0.778988,77.8988,84.4951
197.304,36.717,32.6381,,197.304,44.67,42.9419,,197.304,82.1961,0.760054,76.0054,82.3057
199.156,37.17,34.6478,,199.156,41.124,43.5822,,199.156,90.3852,0.794999,79.4999,80.5185
201.008,39.533,35.9408,,201.008,35.305,40.7299,,201.008,111.976,0.882418,88.2418,80.6415
202.86,35.986,36.2652,,202.86,44.395,41.25,,202.86,81.0587,0.879158,87.9158,81.8661
204.711,37.531,35.8326,,204.711,43.03,42.5105,,204.711,87.2205,0.842912,84.2912,82.7135
206.563,40.166,37.3208,,206.563,41.575,41.5212,,206.563,96.6109,0.898836,89.8836,84.9498
208.415,35.801,38.5958,,208.415,41.756,41.3975,,208.415,85.7386,0.932324,93.2324,87.9477
210.267,29.255,35.643,,210.267,38.119,40.5497,,210.267,76.7465,0.878995,87.8995,89.2204
212.118,31.253,33.0357,,212.118,41.481,39.618,,212.118,75.3429,0.833856,83.3856,88.16
213.97,35.252,32.9533,,213.97,40.389,40.2939,,213.97,87.2812,0.817823,81.7823,87.4068
215.822,37.524,35.0309,,215.822,34.661,38.4798,,215.822,108.26,0.91037,91.037,87.7313
217.673,35.614,36.6786,,217.673,41.933,38.7408,,217.673,84.9307,0.946768,94.6768,88.2631
219.525,36.249,36.0171,,219.525,44.568,41.7339,,219.525,81.3341,0.863018,86.3018,87.7641
221.377,35.157,35.838,,221.377,44.749,42.7725,,221.377,78.5649,0.837873,83.7873,87.4444
223.229,35.701,35.2326,,223.229,43.657,42.8089,,223.229,81.7761,0.82302,82.302,87.3733
225.08,40.7,37.613,,225.08,40.566,42.6129,,225.08,100.33,0.882667,88.2667,87.5133
226.932,34.244,37.6759,,226.932,42.474,41.5992,,226.932,80.6234,0.905687,90.5687,86.736
228.784,34.334,35.7374,,228.784,44.291,42.036,,228.784,77.5191,0.850162,85.0162,85.8289
230.636,39.606,36.2482,,230.636,42.926,42.496,,230.636,92.2658,0.852978,85.2978,85.6169
232.487,38.604,38.1083,,232.487,39.743,42.2131,,232.487,97.1341,0.902761,90.2761,86.7856
234.339,41.967,39.0873,,234.339,42.197,41.7141,,234.339,99.4549,0.937027,93.7027,88.4163
236.191,38.329,39.386,,236.191,45.378,43.5585,,236.191,84.466,0.904208,90.4208,88.8784
238.043,41.328,39.2331,,238.043,56.013,46.5648,,238.043,73.7829,0.842547,84.2547,88.6577
239.894,45.963,41.3614,,239.894,61.103,53.244,,239.894,75.2222,0.776828,77.6828,87.8999
241.746,53.689,46.0723,,241.746,58.284,56.4093,,241.746,92.1162,0.81675,81.675,86.5226
243.598,59.506,51.7872,,243.598,62.828,58.4586,,243.598,94.7125,0.885879,88.5879,85.5607
245.449,64.687,56.9347,,245.449,67.464,62.2546,,245.449,95.8837,0.914546,91.4546,85.118
247.301,62.231,59.6851,,247.301,74.008,67.0479,,247.301,84.0869,0.890186,89.0186,85.4874
249.153,66.139,62.4181,,249.153,76.462,71.9343,,249.153,86.4992,0.86771,86.771,86.6131
251.005,66.683,64.8416,,251.005,78.824,74.4033,,251.005,84.5973,0.871489,87.1489,88.2592
252.856,70.046,67.0211,,252.856,84.096,77.687,,252.856,83.2929,0.862707,86.2707,88.5514
254.681,74.772,69.5322,,254.681,83.277,80.7354,,254.681,89.7871,0.861236,86.1236,87.7455
256.513,78.225,73.6643,,256.513,85.73,82.9864,,256.513,91.2458,0.887667,88.7667,87.1283
258.347,74.133,75.7051,,258.347,87.911,85.0558,,258.347,84.3273,0.890064,89.0064,87.4111
260.181,72.586,74.2585,,260.181,84.546,85.9536,,260.181,85.8539,0.863938,86.3938,87.3773
262.017,78.403,75.6578,,262.017,84.181,85.3776,,262.017,93.1362,0.886155,88.6155,87.6185
263.853,74.583,76.4076,,263.853,88.362,86.106,,263.853,84.4062,0.887366,88.7366,88.1874
265.691,75.128,76.0761,,265.691,92.361,87.7832,,265.691,81.3417,0.866636,86.6636,88.1472
267.53,70.944,74.0584,,267.53,91.36,89.4831,,267.53,77.6532,0.827625,82.7625,87.0835
269.369,74.67,72.8115,,269.369,92.995,90.0457,,269.369,80.2946,0.808606,80.8606,85.8389
271.21,73.578,73.6043,,271.21,97.903,92.4478,,271.21,75.154,0.796171,79.6171,84.4874
273.052,71.031,72.8904,,273.052,94.902,94.2616,,273.052,74.8467,0.773278,77.3278,82.3595
274.895,78.575,73.5352,,274.895,88.446,92.3501,,274.895,88.8395,0.796266,79.6266,80.6316
276.739,82.483,77.2257,,276.739,88.082,90.1149,,276.739,93.6434,0.85697,85.697,80.4746
278.584,76.664,77.9761,,278.584,88.171,88.4909,,278.584,86.9492,0.881177,88.1177,81.6751
280.431,76.208,76.0041,,280.431,90.716,89.2624,,280.431,84.0072,0.851469,85.1469,82.7806
282.278,80.115,76.5627,,282.278,89.714,89.8304,,282.278,89.3004,0.852303,85.2303,84.0603
284.126,75.023,76.0318,,284.126,92.441,90.4788,,284.126,81.1577,0.840327,84.0327,85.4132
285.976,72.567,74.5974,,285.976,93.803,91.1303,,285.976,77.3611,0.81858,81.858,85.3872
287.826,75.111,74.5575,,287.826,92.802,91.8899,,287.826,80.9368,0.811378,81.1378,84.1744
289.678,76.746,74.4857,,289.678,89.255,90.7646,,289.678,85.9851,0.820647,82.0647,83.1187
291.531,78.018,75.7933,,291.531,92.527,90.6522,,291.531,84.3192,0.83609,83.609,82.7714
293.385,79.562,77.4548,,293.385,90.526,91.3556,,293.385,87.8886,0.847839,84.7839,82.5431
295.239,78.56,79.5644,,295.239,91.07,90.4104,,295.239,86.2633,0.880036,88.0036,83.3124
297.095,76.559,77.8021,,297.095,94.887,92.2607,,297.095,80.6844,0.843285,84.3285,84.119
298.952,77.648,77.1976,,298.952,95.431,93.5602,,298.952,81.3656,0.825111,82.5111,84.4257
300.81,76.647,76.0934,,300.81,93.793,94.3954,,300.81,81.7193,0.806113,80.6113,84.1402
302.669,76.554,77.1836,,302.669,88.338,91.817,,302.669,86.6603,0.840624,84.0624,84.0014
304.53,72.553,75.3654,,304.53,89.609,89.7095,,304.53,80.9662,0.840105,84.0105,83.6596
306.391,75.551,75.0055,,306.391,88.062,89.1865,,306.391,85.793,0.840996,84.0996,83.1461
308.253,78.641,77.1014,,308.253,93.152,90.2314,,308.253,84.4222,0.854484,85.4484,83.4728
310.117,73.821,77.6712,,310.117,91.605,91.4441,,310.117,80.5862,0.849384,84.9384,84.144
311.981,75.365,75.8224,,311.981,91.422,91.101,,311.981,82.4364,0.832289,83.2289,84.422
313.847,78.091,77.1898,,313.847,95.33,91.2889,,313.847,81.9165,0.845555,84.5555,84.3555
315.713,73.816,76.1783,,315.713,94.329,93.5318,,315.713,78.2538,0.814464,81.4464,84.1409
317.581,73.997,74.7102,,317.581,98.418,94.6417,,317.581,75.1864,0.7894,78.94,83.1567
319.45,78.086,75.1221,,319.45,96.326,96.297,,319.45,81.0643,0.780109,78.0109,81.7079
321.319,80.175,76.8563,,321.319,90.416,95.3567,,321.319,88.6735,0.805987,80.5987,80.8934
323.19,84.356,79.3794,,323.19,94.142,94.0786,,323.19,89.6051,0.843757,84.3757,80.8323
325.062,78.899,80.5016,,325.062,93.14,93.6586,,325.062,84.7101,0.859522,85.9522,81.2786
326.935,75.443,77.8203,,326.935,97.503,94.264,,326.935,77.3751,0.825557,82.5557,81.9635
328.809,77.896,76.2801,,328.809,101.683,97.2686,,328.809,76.6067,0.784221,78.4221,82.2004
330.685,82.713,78.099,,330.685,99.227,99.6732,,330.685,83.3574,0.783551,78.3551,82.0724
332.561,78.529,78.9613,,332.561,99.771,99.774,,332.561,78.7092,0.791402,79.1402,81.4063
334.438,82.982,79.5386,,334.438,97.679,98.6843,,334.438,84.9538,0.80599,80.599,80.3409
336.316,86.344,82.3453,,336.316,102.496,99.0986,,336.316,84.2413,0.830943,83.0943,79.8391
338.196,86.252,84.6714,,338.196,102.131,101.62,,338.196,84.4523,0.833215,83.3215,80.3813
340.076,86.614,85.5261,,340.076,99.947,101.981,,340.076,86.6599,0.838644,83.8644,81.4594
341.958,83.703,85.1155,,341.958,96.491,99.8221,,341.958,86.747,0.852673,85.2673,82.6777
343.84,81.428,83.3562,,343.84,102.49,99.8795,,343.84,79.4497,0.834567,83.4567,83.6033
345.724,82.699,82.7673,,345.724,103.579,101.973,,345.724,79.8415,0.81166,81.166,83.6105
347.609,82.069,82.8691,,347.609,98.042,100.992,,347.609,83.708,0.820554,82.0554,83.2853
349.495,80.335,82.2482,,349.495,106.676,101.908,,349.495,75.3075,0.807081,80.7081,82.8864
351.382,82.466,81.2081,,351.382,105.402,104.69,,351.382,78.2395,0.775699,77.5699,81.6553
353.269,88.785,83.1882,,353.269,105.292,104.512,,353.269,84.3226,0.795965,79.5965,80.5086
355.158,88.954,85.1418,,355.158,115.346,107.968,,355.158,77.1193,0.78858,78.858,79.9539
357.048,93.756,88.1481,,357.048,110.673,111.077,,357.048,84.7144,0.793577,79.3577,79.5039
358.94,88.748,89.7439,,358.94,111.762,109.872,,358.94,79.408,0.816807,81.6807,79.3546
360.832,92.712,90.5152,,360.832,113.053,110.748,,360.832,82.0076,0.817311,81.7311,79.8318
362.725,89.696,90.603,,362.725,115.754,112.854,,362.725,77.4885,0.802831,80.2831,80.3391
364.619,90.139,90.1009,,364.619,111.863,113.697,,364.619,80.5798,0.792464,79.2464,80.2705
366.515,91.865,90.0682,,366.515,120.36,114.787,,366.515,76.3252,0.784652,78.4652,80.334
368.411,96.172,91.6045,,368.411,120.326,118.882,,368.411,79.9262,0.770552,77.0552,79.7332
370.308,93.628,92.4106,,370.308,118.77,118.855,,370.308,78.8314,0.777505,77.7505,79.0107
372.207,97.807,93.776,,372.207,125.223,119.59,,372.207,78.1063,0.784143,78.4143,78.4244
374.107,92.744,94.9415,,374.107,125.543,122.975,,374.107,73.8743,0.772037,77.2037,78.0789
376.007,93.126,93.3558,,376.007,125.651,124.338,,376.007,74.1148,0.750824,75.0824,77.3679
377.909,96.295,94.4085,,377.909,131.77,125.91,,377.909,73.0781,0.749811,74.9811,76.8386
379.812,99.315,96.9504,,379.812,139.358,130.63,,379.812,71.2661,0.742174,74.2174,76.2233
381.716,102.322,99.6254,,381.716,139.065,134.212,,381.716,73.5785,0.742297,74.2297,75.4762
383.62,99.272,100.129,,383.62,145.735,138.843,,383.62,68.1182,0.721165,72.1165,74.5367
385.526,100.639,99.9816,,385.526,137.409,139.962,,385.526,73.2405,0.714349,71.4349,73.6444
387.433,108.152,103.281,,387.433,141.168,139.514,,387.433,76.6123,0.740292,74.0292,73.308
389.341,111.641,107.6,,389.341,145.868,142.1,,389.341,76.5356,0.757214,75.7214,73.4178
391.25,118.725,111.442,,391.25,151.691,146.125,,391.25,78.2677,0.762646,76.2646,73.7851
393.161,128.047,116.903,,393.161,160.884,150.977,,393.161,79.5896,0.774311,77.4311,74.4259
395.072,144.63,125.595,,395.072,183.671,161.883,,395.072,78.7441,0.775839,77.5839,75.6142
396.984,180.748,144.046,,396.984,208.373,180.311,,396.984,86.7425,0.798875,79.8875,76.8427
398.897,225.488,174.132,,398.897,246.89,204.525,,398.897,91.3314,0.851397,85.1397,78.5473
400.812,288.392,214.725,,400.812,313.157,242.129,,400.812,92.0918,0.88682,88.682,80.8201
402.727,391.46,276.971,,402.727,415.887,302.785,,402.727,94.1265,0.914745,91.4745,83.4678
404.644,551.793,374.842,,404.644,560.653,396.039,,404.644,98.4197,0.946477,94.6477,86.4827
406.561,780.098,520.186,,406.561,774.298,531.273,,406.561,100.749,0.979131,97.9131,90.054
408.48,1115.923,735.329,,408.48,1093.481,734.641,,408.48,102.052,1.00094,100.094,93.3307
410.4,1620.817,1053.78,,410.4,1550.196,1031.22,,410.4,104.556,1.02187,102.187,96.109
412.32,2350.5,1523.43,,412.32,2222.732,1462.76,,412.32,105.748,1.04147,104.147,98.6954
414.242,3351.624,2195.6,,414.242,3163.461,2085.57,,414.242,105.948,1.05276,105.276,101.024
416.165,4727.302,3130.51,,416.165,4451.47,2958.03,,416.165,106.196,1.05831,105.831,102.825
418.089,6593.747,4416.41,,418.089,6190.243,4157.76,,418.089,106.518,1.06221,106.221,104.186
420.014,9046.656,6148.28,,420.014,8451.974,5767.44,,420.014,107.036,1.06603,106.603,105.228
421.939,12134.908,8416.43,,421.939,11338.22,7870.72,,421.939,107.027,1.06933,106.933,105.935
423.866,15921.965,11289.6,,423.866,14858.071,10548.9,,423.866,107.16,1.07022,107.022,106.362
425.795,20386.812,14815.6,,425.795,18999.297,13820.5,,425.795,107.303,1.072,107.2,106.666
427.724,25568.114,19010.7,,427.724,23830.084,17724.6,,427.724,107.293,1.07256,107.256,106.903
429.654,31398.086,23887.7,,429.654,29330.442,22281.3,,429.654,107.049,1.0721,107.21,107.068
431.585,37976.961,29446.4,,431.585,35524.486,27504.1,,431.585,106.904,1.07062,107.062,107.133
433.517,45281.029,35732.3,,433.517,42427.542,33418,,433.517,106.726,1.06926,106.926,107.134
435.451,53046.875,42679.4,,435.451,49887.621,39995.1,,435.451,106.333,1.06712,106.712,107.074
437.385,60711.558,50131.5,,437.385,57254.674,47073.2,,437.385,106.038,1.06497,106.497,106.942
439.32,64000,56733.7,,439.32,62514.822,53892.5,,439.32,102.376,1.05272,105.272,106.656
441.257,64000,60524.5,,441.257,64000,58913.9,,441.257,100,1.02734,102.734,105.958
443.194,63776.057,62309.7,,443.194,63674.793,61526.8,,443.194,100.159,1.01272,101.272,104.937
445.133,62678.137,62845.4,,445.133,62227.685,62338.3,,445.133,100.724,1.00814,100.814,103.812
447.072,60417.678,62258.3,,447.072,59293.563,61635.3,,447.072,101.896,1.01011,101.011,102.738
449.013,55264.15,60164.4,,449.013,53142.307,59010.9,,449.013,103.993,1.01955,101.955,101.888
450.955,46709.5,55513.5,,450.955,44477.703,53779.7,,450.955,105.018,1.03224,103.224,101.641
452.897,38026.891,48646.2,,452.897,36198.569,46764.1,,452.897,105.051,1.04025,104.025,101.986
454.841,30963.423,41231.3,,454.841,29497.312,39472.2,,454.841,104.97,1.04457,104.457,102.618
456.786,25579.301,34433,,456.786,24370.579,32900.3,,456.786,104.96,1.04659,104.659,103.33
458.732,21479.983,28725.9,,458.732,20454.45,27407.8,,458.732,105.014,1.04809,104.809,103.976
460.679,18164.802,24071.4,,460.679,17336.43,22959.3,,460.679,104.778,1.04844,104.844,104.417
462.627,15347.888,20250.4,,462.627,14707.613,19335.7,,462.627,104.353,1.04731,104.731,104.637
464.576,12948.681,17064.9,,464.576,12463.222,16334.4,,464.576,103.895,1.04472,104.472,104.697
466.526,10963.27,14395.8,,466.526,10551.892,13810.2,,466.526,103.899,1.0424,104.24,104.648
468.477,9330.6,12169.5,,468.477,9025.241,11703.9,,468.477,103.383,1.03978,103.978,104.523
470.429,8061.374,10346.3,,470.429,7818.333,9984.2,,470.429,103.109,1.03627,103.627,104.314
472.382,7083.034,8892.52,,472.382,6899.26,8608.48,,472.382,102.664,1.03299,103.299,104.048
474.336,6357.295,7755.78,,474.336,6186.437,7525.12,,474.336,102.762,1.03065,103.065,103.763
476.292,5798.204,6877.88,,476.292,5650.679,6682.84,,476.292,102.611,1.02919,102.919,103.499
478.248,5359.254,6198.27,,478.248,5248.95,6036.29,,478.248,102.101,1.02683,102.683,103.236
480.205,5030.861,5671.29,,480.205,4936.14,5542.55,,480.205,101.919,1.02323,102.323,102.969
482.164,4791.809,5270.61,,482.164,4730.842,5169.31,,482.164,101.289,1.0196,101.96,102.7
484.123,4660.543,4982.19,,484.123,4621.49,4909.27,,484.123,100.845,1.01485,101.485,102.405
486.083,4660.598,4809.01,,486.083,4648.985,4759.32,,486.083,100.25,1.01044,101.044,102.059
488.045,4830.711,4768.76,,488.045,4831.615,4743.7,,488.045,99.9813,1.00528,100.528,101.65
490.007,5140.477,4873.99,,490.007,5132.308,4858.48,,490.007,100.159,1.00319,100.319,101.241
491.971,5548.21,5111.98,,491.971,5580.085,5109.18,,491.971,99.4288,1.00055,100.055,100.856
493.936,6083.555,5469.5,,493.936,6134.021,5491.74,,493.936,99.1773,0.99595,99.595,100.47
495.901,6696.497,5941.42,,495.901,6805.139,5993.71,,495.901,98.4035,0.991276,99.1276,100.086
497.868,7393.056,6507.64,,497.868,7560.527,6605.84,,497.868,97.7849,0.985135,98.5135,99.687
499.836,8174.346,7167.04,,499.836,8398.979,7313.26,,499.836,97.3255,0.980007,98.0007,99.2585
501.804,9004.957,7903.7,,501.804,9288.26,8101.74,,501.804,96.9499,0.975555,97.5555,98.7753
503.774,9835.23,8690.81,,503.774,10243.017,8963.53,,503.774,96.0189,0.969575,96.9575,98.2641
505.745,10674.458,9499.27,,505.745,11150.964,9863.56,,505.745,95.7268,0.963067,96.3067,97.708
507.717,11529.401,10332.5,,507.717,12055.608,10765.2,,507.717,95.6352,0.959811,95.9811,97.176
509.69,12348.527,11166.1,,509.69,12973.535,11674.3,,509.69,95.1824,0.956466,95.6466,96.6945
511.664,13121.09,11980.6,,511.664,13871.801,12583.8,,511.664,94.5882,0.952065,95.2065,96.2288
513.639,13820.087,12756.8,,513.639,14671.604,13461.2,,513.639,94.1962,0.947669,94.7669,95.7676
515.615,14430.337,13473.6,,515.615,15397.06,14281.8,,515.615,93.7214,0.943413,94.3413,95.3537
517.592,14943.656,14110.7,,517.592,16069.592,15040.5,,517.592,92.9934,0.93818,93.818,94.9426
519.57,15337.015,14649.9,,519.57,16637.44,15729,,519.57,92.1837,0.931395,93.1395,94.4688
521.549,15690.573,15100.5,,521.549,17143.404,16334.7,,521.549,91.5254,0.924446,92.4446,93.9333
523.529,15921.593,15474.2,,523.529,17567.495,16868.9,,523.529,90.631,0.917324,91.7324,93.3526
525.51,16050.53,15745.2,,525.51,17912.017,17326.5,,525.51,89.6076,0.908734,90.8734,92.6968
527.493,16109.49,15925.6,,527.493,18129.767,17691.4,,527.493,88.8566,0.90019,90.019,91.9636
529.476,16059.249,16011.2,,529.476,18298.241,17965.2,,529.476,87.7639,0.891236,89.1236,91.1781
531.46,15944.071,16010.9,,531.46,18376.976,18162.2,,531.46,86.7611,0.881548,88.1548,90.344
533.446,15778.542,15933.7,,533.446,18394.461,18277.2,,533.446,85.7788,0.871781,87.1781,89.4556
535.432,15606.496,15808.6,,535.432,18380.008,18335.7,,535.432,84.9102,0.862173,86.2173,88.5313
537.419,15391.565,15647.5,,537.419,18314.218,18342.9,,537.419,84.0416,0.853056,85.3056,87.5979
539.408,15245.786,15472.3,,539.408,18241.306,18310.1,,539.408,83.5784,0.845013,84.5013,86.6666
541.397,15114.673,15318.1,,541.397,18116.433,18244.7,,541.397,83.4307,0.83959,83.959,85.7955
543.388,15004.197,15180.4,,543.388,18010.748,18152.8,,543.388,83.3069,0.83626,83.626,85.0352
545.379,14901.844,15061.1,,545.379,17860.086,18041.7,,545.379,83.4366,0.834795,83.4795,84.4208
547.372,14804.983,14952.9,,547.372,17739.367,17915.4,,547.372,83.4584,0.834637,83.4637,83.9748
549.365,14708.984,14853.3,,549.365,17602.812,17792,,549.365,83.5604,0.834832,83.4832,83.6966
551.36,14648.953,14764.8,,551.36,17418.725,17651.3,,551.36,84.0989,0.836469,83.6469,83.5709
553.356,14531.94,14678.2,,553.356,17167.843,17468.1,,553.356,84.6463,0.840286,84.0286,83.5905
555.352,14375.465,14562.5,,555.352,16964.686,17256.7,,555.352,84.7376,0.843874,84.3874,83.7319
557.35,14243.407,14432,,557.35,16744.941,17055.5,,557.35,85.061,0.846178,84.6178,83.9367
559.349,14071.257,14292.1,,559.349,16493.069,16829.6,,559.349,85.3162,0.849225,84.9225,84.1953
561.348,13862.944,14121.3,,561.348,16250.673,16589.7,,561.348,85.3069,0.851206,85.1206,84.4869
563.349,13637.313,13928.2,,563.349,15993.017,16348.1,,563.349,85.2704,0.851978,85.1978,84.7492
565.351,13344.021,13700.2,,565.351,15706.557,16090.7,,565.351,84.9583,0.851436,85.1436,84.9338
567.354,13036.939,13436.4,,567.354,15408.025,15816.3,,567.354,84.6114,0.849529,84.9529,85.0337
569.358,12730.682,13151.1,,569.358,15122.221,15533,,569.358,84.1853,0.846651,84.6651,85.0348
571.363,12391.142,12846.9,,571.363,14803.019,15236.5,,571.363,83.7069,0.84317,84.317,84.9206
573.368,12027.216,12517.4,,573.368,14476.131,14927.8,,573.368,83.0831,0.838526,83.8526,84.6995
575.375,11720.754,12182.4,,575.375,14137.525,14603.3,,575.375,82.9053,0.834225,83.4225,84.3859
577.383,11437.125,11869.8,,577.383,13856.848,14288,,577.383,82.5377,0.830754,83.0754,84.0282
579.392,11169.203,11575.2,,579.392,13553.915,13989.5,,579.392,82.4057,0.82742,82.742,83.6478
581.402,10889.377,11290.1,,581.402,13220.763,13677.3,,581.402,82.3657,0.825464,82.5464,83.2839
583.413,10674.993,11020.8,,583.413,12883.828,13351.8,,583.413,82.8558,0.82542,82.542,82.979
585.425,10529.791,10801.5,,585.425,12565.841,13024.3,,585.425,83.7969,0.829333,82.9333,82.8163
587.439,10368.933,10616.9,,587.439,12218.756,12701.1,,587.439,84.8608,0.835904,83.5904,82.837
589.453,10240.253,10448.7,,589.453,11860.998,12358.4,,589.453,86.3355,0.845474,84.5474,83.089
591.468,10145.741,10312.8,,591.468,11532.923,12014.7,,591.468,87.972,0.858353,85.8353,83.6198
593.484,10015.474,10189.4,,593.484,11205.222,11680.4,,593.484,89.3822,0.872351,87.2351,84.4374
595.501,9909.928,10068.5,,595.501,10855.083,11343.6,,595.501,91.293,0.887597,88.7597,85.5038
597.519,9766.918,9952.33,,597.519,10499.447,10998.9,,597.519,93.0232,0.904847,90.4847,86.79
599.539,9621.222,9818.4,,599.539,10162.072,10650.4,,599.539,94.6778,0.921877,92.1877,88.2528
601.559,9469.938,9681.06,,601.559,9798.777,10300.6,,601.559,96.6441,0.93985,93.985,89.8382
603.58,9288.958,9527.82,,603.58,9459.679,9949.95,,603.58,98.1953,0.957575,95.7575,91.5083
605.602,9071.659,9347.83,,605.602,9106.042,9603.99,,605.602,99.6224,0.973328,97.3328,93.2143
607.626,8853.22,9150.81,,607.626,8752.966,9252.65,,607.626,101.145,0.988994,98.8994,94.9077
609.65,8597.858,8930.78,,609.65,8417.211,8907.23,,609.65,102.146,1.00264,100.264,96.5479
611.675,8346.12,8693.32,,611.675,8081.183,8566.92,,611.675,103.278,1.01475,101.475,98.0964
613.702,8090.461,8447.58,,613.702,7750.473,8230.89,,613.702,104.387,1.02633,102.633,99.525
615.729,7791.012,8189.18,,615.729,7428.717,7899.72,,615.729,104.877,1.03664,103.664,100.84
617.757,7494.107,7904.64,,617.757,7107.102,7574.24,,617.757,105.445,1.04362,104.362,102.007
619.787,7226.193,7622.79,,619.787,6777.411,7248.79,,619.787,106.622,1.0516,105.16,103.031
621.817,6911.864,7334.65,,621.817,6479.382,6926.44,,621.817,106.675,1.05894,105.894,103.963
623.849,6636.771,7041.46,,623.849,6197.39,6621.21,,623.849,107.09,1.06347,106.347,104.764
625.881,6377.221,6765.51,,625.881,5898.7,6323.7,,625.881,108.112,1.06987,106.987,105.462
627.915,6091.356,6492.22,,627.915,5597.269,6026.39,,627.915,108.827,1.0773,107.73,106.131
629.949,5808.89,6212.68,,629.949,5317.543,5729.63,,629.949,109.24,1.08431,108.431,106.804
631.985,5568.217,5940.08,,631.985,5078.235,5452.72,,631.985,109.649,1.08938,108.938,107.425
634.021,5324.099,5686.48,,634.021,4845.814,5199.17,,634.021,109.87,1.09373,109.373,108.026
636.059,5081.313,5434.72,,636.059,4614.617,4957.05,,636.059,110.113,1.09636,109.636,108.586
638.098,4854.678,5194.22,,638.098,4396.936,4722.31,,638.098,110.41,1.09993,109.993,109.076
640.137,4617.995,4954.4,,640.137,4190.298,4500.78,,640.137,110.207,1.10079,110.079,109.46
642.178,4395.358,4721.1,,642.178,3977.679,4285.8,,642.178,110.501,1.10157,110.157,109.739
644.219,4184.256,4498.69,,644.219,3776.175,4074.28,,644.219,110.807,1.10417,110.417,109.966
646.262,3980.09,4284.47,,646.262,3579.935,3869.46,,646.262,111.178,1.10725,110.725,110.183
648.306,3792.647,4078.69,,648.306,3390.26,3668.67,,648.306,111.869,1.11176,111.176,110.418
650.35,3611.214,3882.27,,650.35,3226.089,3481.54,,650.35,111.938,1.1151,111.51,110.678
652.396,3425.494,3693.05,,652.396,3054.629,3304.68,,652.396,112.141,1.11752,111.752,110.978
654.443,3248.776,3507.95,,654.443,2884.204,3130.37,,654.443,112.64,1.12062,112.062,111.3
656.49,3086.187,3330.03,,656.49,2731.414,2962.54,,656.49,112.989,1.12405,112.405,111.634
658.539,2925.85,3161.55,,658.539,2580.731,2804.5,,658.539,113.373,1.12731,112.731,111.964
660.589,2754.862,2995.18,,660.589,2427.603,2648.13,,660.589,113.481,1.13105,113.105,112.281
662.64,2601.446,2831.6,,662.64,2288.091,2497.08,,662.64,113.695,1.13397,113.397,112.603
664.691,2463.098,2676.72,,664.691,2164.156,2356.33,,664.691,113.813,1.13597,113.597,112.919
666.744,2325.672,2530.13,,666.744,2045.696,2226.29,,666.744,113.686,1.13648,113.648,113.188
668.798,2195.578,2390.28,,668.798,1925.154,2100.21,,668.798,114.047,1.13811,113.811,113.417
670.853,2078.255,2260.38,,670.853,1815.214,1979.64,,670.853,114.491,1.14181,114.181,113.632
672.909,1959.251,2135.88,,672.909,1715.56,1867.31,,672.909,114.205,1.14383,114.383,113.842
674.965,1860.63,2017.33,,674.965,1611.947,1762.64,,674.965,115.427,1.14449,114.449,114.016
677.023,1746.31,1905.85,,677.023,1524.155,1660.97,,677.023,114.576,1.14743,114.743,114.22
679.082,1641.934,1795.64,,679.082,1432.954,1566.48,,679.082,114.584,1.14629,114.629,114.403
681.142,1549.803,1691.23,,681.142,1354.302,1476.52,,681.142,114.436,1.14542,114.542,114.527
683.203,1466.137,1596.33,,683.203,1270.438,1392.78,,683.203,115.404,1.14615,114.615,114.582
685.265,1375.498,1506.21,,685.265,1184.315,1306.68,,685.265,116.143,1.1527,115.27,114.715
687.327,1285.629,1414.67,,687.327,1118.864,1225.41,,687.327,114.905,1.15445,115.445,114.873
689.391,1211.732,1327.35,,689.391,1065.445,1157.43,,689.391,113.73,1.1468,114.68,114.918
691.456,1152.166,1251.7,,691.456,1002.409,1093.7,,691.456,114.94,1.14447,114.447,114.888
693.522,1082.342,1181.51,,693.522,947.984,1031.78,,693.522,114.173,1.14512,114.512,114.88
695.589,1016.981,1112.78,,695.589,895.937,974.024,,695.589,113.51,1.14245,114.245,114.77
697.657,961.966,1048.44,,697.657,844.05,920.439,,697.657,113.97,1.13906,113.906,114.493
699.726,906.325,989.638,,699.726,793.442,867.434,,699.726,114.227,1.14088,114.088,114.271
701.796,851.891,931.568,,701.796,752.07,817.616,,701.796,113.273,1.13937,113.937,114.176
703.867,805.01,877.965,,703.867,717.422,774.53,,703.867,112.209,1.13355,113.355,113.989
705.939,760.506,828.529,,705.939,679.315,735.617,,705.939,111.952,1.1263,112.63,113.688
708.012,708.99,780.903,,708.012,636.773,694.687,,708.012,111.341,1.12411,112.411,113.389
710.085,668.907,732.971,,710.085,606.364,655.382,,710.085,110.314,1.11839,111.839,113.022
712.16,635.156,691.832,,712.16,566.369,620.068,,712.16,112.145,1.11574,111.574,112.541
714.236,601.41,654.318,,714.236,532.352,582.695,,714.236,112.972,1.12292,112.292,112.223
716.313,559.402,616.297,,716.313,505.864,550.157,,716.313,110.583,1.12022,112.022,112.074
718.391,522.116,576.219,,718.391,472.365,517.728,,718.391,110.532,1.11297,111.297,111.867
720.47,496.644,541.312,,720.47,447.827,487.368,,720.47,110.901,1.11069,111.069,111.663
722.55,468.861,510.872,,722.55,433.743,462.584,,722.55,108.096,1.10439,110.439,111.489
724.631,441.556,481.741,,724.631,409.02,440.922,,724.631,107.955,1.09258,109.258,111.061
726.713,421.466,456.087,,726.713,388.541,418.692,,726.713,108.474,1.08931,108.931,110.425
728.796,395.837,431.574,,728.796,371.186,398.504,,728.796,106.641,1.08299,108.299,109.832
730.88,382.485,409.182,,730.88,349.794,379.032,,730.88,109.346,1.07954,107.954,109.232
732.965,365.017,391.302,,732.965,336.604,360.43,,732.965,108.441,1.08565,108.565,108.771
735.051,341.46,371.22,,735.051,326.387,344.836,,735.051,104.618,1.07651,107.651,108.421
737.138,326.066,351.529,,737.138,309.643,331.615,,737.138,105.304,1.06005,106.005,107.912
739.226,311.926,334.77,,739.226,297.074,317.355,,739.226,104.999,1.05488,105.488,107.318
741.315,301.966,320.51,,741.315,293.86,307.387,,741.315,102.758,1.04269,104.269,106.683
743.405,287.856,307.371,,743.405,277.141,297.104,,743.405,103.866,1.03456,103.456,105.804
745.496,274.685,294.317,,745.496,267.722,284.507,,745.496,102.601,1.03448,103.448,104.896
747.588,267.644,281.808,,747.588,263.788,275.873,,747.588,101.462,1.02151,102.151,104.101
749.681,260.786,272.695,,749.681,251.092,266.248,,749.681,103.861,1.02422,102.422,103.453
751.775,250.643,262.995,,751.775,245.16,256.03,,751.775,102.236,1.0272,102.72,103.014
753.87,241.456,254.218,,753.87,247.608,251.097,,753.87,97.5154,1.01243,101.243,102.622
755.966,228.698,244.854,,755.966,236.574,246.921,,755.966,96.6708,0.991629,99.1629,101.889
758.063,210.568,232.183,,758.063,221.635,236.698,,758.063,95.0067,0.980924,98.0924,101.007
760.161,195.983,216.608,,760.161,205.981,223.779,,760.161,95.1462,0.967954,96.7954,100.026
762.26,189.21,203.443,,762.26,201.861,212.771,,762.26,93.7328,0.956158,95.6158,98.7433
764.36,191.625,196.549,,764.36,202.38,207.356,,764.36,94.6857,0.947882,94.7882,97.3555
766.461,188.098,193.728,,766.461,204.113,204.812,,766.461,92.1539,0.945881,94.5881,96.318
768.562,180.949,188.4,,768.562,201.143,203.635,,768.562,89.9604,0.925184,92.5184,95.2844
770.665,182.187,185.553,,770.665,193.588,199.951,,770.665,94.1107,0.927993,92.7993,94.3557
772.769,172.626,181.859,,772.769,193.397,196.739,,772.769,89.2599,0.924366,92.4366,93.6762
774.874,169.98,175.577,,774.874,185.475,193.222,,774.874,91.6458,0.90868,90.868,92.9386
776.98,172.99,173.934,,776.98,189.418,190.42,,776.98,91.3271,0.91342,91.342,92.2363
779.087,162.351,170.665,,779.087,181.983,187.565,,779.087,89.2122,0.909899,90.9899,91.757
781.195,158.189,164.411,,781.195,180.753,184.49,,781.195,87.5167,0.891163,89.1163,91.2373
783.304,156.927,161.168,,783.304,173.935,181.758,,783.304,90.2216,0.886717,88.6717,90.4644
785.414,147.146,157.093,,785.414,167.726,177.097,,785.414,87.73,0.887047,88.7047,89.9364
787.525,145.865,152.277,,787.525,158.788,170.284,,787.525,91.8615,0.894253,89.4253,89.5716
789.637,143.523,148.707,,789.637,156.031,163.472,,789.637,91.9836,0.909679,90.9679,89.4145
791.749,139.574,145.297,,791.749,153.463,159.225,,791.749,90.9496,0.912525,91.2525,89.6129
793.863,136.391,141.513,,793.863,150.563,156.128,,793.863,90.5873,0.906397,90.6397,89.9934
795.978,134.882,138.236,,795.978,150.986,153.586,,795.978,89.3341,0.900058,90.0058,90.2401
798.094,132.947,135.833,,798.094,150.643,152.262,,798.094,88.253,0.892096,89.2096,90.353
800.211,128.05,132.749,,800.211,146.816,150.657,,800.211,87.218,0.881134,88.1134,90.0661
802.329,130.605,130.686,,802.329,147.662,149.629,,802.329,88.4486,0.8734,87.34,89.4169
804.448,127.494,130.62,,804.448,146.668,148.293,,804.448,86.9269,0.880824,88.0824,88.8538
806.567,127.201,128.973,,806.567,155.107,149.196,,806.567,82.0085,0.864449,86.4449,88.2191
808.688,123.269,127.238,,808.688,147.652,150.275,,808.688,83.4862,0.846705,84.6705,87.3181
810.81,127.232,125.828,,810.81,146.27,148.305,,810.81,86.9843,0.848438,84.8438,86.5175
812.933,128.089,126.653,,812.933,144.419,147.154,,812.933,88.6926,0.860685,86.0685,86.1317
815.057,128.287,127.497,,815.057,153.045,147.675,,815.057,83.8231,0.863367,86.3367,85.8728
817.181,138.088,130.714,,817.181,155.736,151.328,,817.181,88.668,0.86378,86.378,85.6336
819.307,138.973,135.016,,819.307,151.672,152.245,,819.307,91.6273,0.886835,88.6835,86.1227
821.434,139.879,136.28,,821.434,160.59,153.76,,821.434,87.1032,0.886313,88.6313,86.9418
823.562,151.734,141.025,,823.562,163.951,158.246,,823.562,92.5484,0.891179,89.1179,87.5764
825.69,164.155,150.237,,825.69,174.003,163.075,,825.69,94.3403,0.921274,92.1274,88.4903
827.82,182.375,162.402,,827.82,189.855,173.097,,827.82,96.0602,0.938215,93.8215,89.8636
829.951,199.271,176.544,,829.951,205.274,186.255,,829.951,97.0756,0.947863,94.7863,91.2417
832.082,208.285,191.156,,832.082,215.495,198.43,,832.082,96.6542,0.963346,96.3346,92.5725
834.215,205.026,199.067,,834.215,216.898,206.786,,834.215,94.5265,0.962671,96.2671,94.0289
836.349,218.367,205.324,,836.349,219.103,211.731,,836.349,99.6641,0.969742,96.9742,95.1798
838.483,243.052,217.788,,838.483,241.528,220.303,,838.483,100.631,0.988583,98.8583,96.1954
840.619,293.984,243.575,,840.619,278.337,239.836,,840.619,105.622,1.01559,101.559,97.3993
842.755,359.322,285.792,,842.755,333.384,272.42,,842.755,107.78,1.04909,104.909,98.9972
844.893,432.506,341.893,,844.893,400.011,320.492,,844.893,108.124,1.06678,106.678,100.87
847.032,516.86,409.669,,847.032,474.535,380.132,,847.032,108.919,1.0777,107.77,103
849.171,600.677,487.24,,849.171,556.983,450.155,,849.171,107.845,1.08238,108.238,104.966
851.312,692.727,570.635,,851.312,630.508,525.136,,851.312,109.868,1.08664,108.664,106.593
853.453,787.629,660.16,,853.453,703.737,599.605,,853.453,111.921,1.10099,110.099,107.826
855.596,864.056,746.967,,855.596,769.709,671.021,,855.596,112.257,1.11318,111.318,108.809
857.739,941.025,827.778,,857.739,829.831,738.184,,857.739,113.4,1.12137,112.137,109.69
859.884,996.456,901.607,,859.884,871.417,796.955,,859.884,114.349,1.13131,113.131,110.598
862.029,1033.375,959.854,,862.029,905.793,845.071,,862.029,114.085,1.13583,113.583,111.583
864.175,1073.356,1009.35,,864.175,932.101,884.121,,864.175,115.154,1.14165,114.165,112.49
866.323,1091.562,1048.18,,866.323,956.712,915.345,,866.323,114.095,1.14512,114.512,113.218
868.471,1127.403,1079.07,,868.471,993.127,945.857,,868.471,113.521,1.14084,114.084,113.707
870.621,1189.392,1118.86,,870.621,1031.509,979.757,,870.621,115.306,1.14198,114.198,113.993
872.771,1253.623,1171.37,,872.771,1082.553,1018.45,,872.771,115.802,1.15014,115.014,114.261
874.922,1337.412,1234.16,,874.922,1157.861,1070.42,,874.922,115.507,1.15297,115.297,114.533
877.075,1433.314,1311.82,,877.075,1234.603,1135.19,,877.075,116.095,1.1556,115.56,114.742
879.228,1538.813,1401.95,,879.228,1331.316,1211.7,,879.228,115.586,1.15701,115.701,115
881.382,1643.534,1500.6,,881.382,1420.587,1298.52,,881.382,115.694,1.15562,115.562,115.304
883.537,1746.759,1602.37,,883.537,1504.383,1384.85,,883.537,116.111,1.15707,115.707,115.514
885.694,1824.163,1698,,885.694,1575.576,1466.43,,885.694,115.778,1.15792,115.792,115.633
887.851,1886.897,1780.56,,887.851,1624.133,1535.65,,887.851,116.179,1.15948,115.948,115.724
890.009,1918.008,1845.27,,890.009,1658.197,1592.38,,890.009,115.668,1.15881,115.881,115.774
892.168,1910.163,1883.16,,892.168,1654.916,1627.2,,892.168,115.424,1.1573,115.73,115.796
894.328,1867.173,1887.46,,894.328,1623.094,1635.81,,894.328,115.038,1.15384,115.384,115.775
896.489,1794.067,1858.99,,896.489,1559.063,1613.7,,896.489,115.073,1.15201,115.201,115.674
898.651,1695.734,1800.13,,898.651,1463.155,1561.85,,898.651,115.896,1.15256,115.256,115.558
900.815,1586.622,1717.07,,900.815,1371.84,1486.62,,900.815,115.656,1.15502,115.502,115.461
902.979,1468.819,1618.55,,902.979,1278.203,1404.37,,902.979,114.913,1.15251,115.251,115.376
905.144,1349.911,1508.68,,905.144,1176.028,1312.13,,905.144,114.786,1.1498,114.98,115.271
907.31,1238.334,1397.18,,907.31,1086.914,1218.25,,907.31,113.931,1.14687,114.687,115.184
909.477,1126.409,1285.37,,909.477,995.007,1125.59,,909.477,113.206,1.14196,114.196,115.024
911.644,1025.284,1176.54,,911.644,906.569,1034.2,,911.644,113.095,1.13764,113.764,114.738
913.813,942.523,1076.56,,913.813,837.096,949.149,,913.813,112.594,1.13424,113.424,114.371
915.983,868.134,986.474,,915.983,779.347,876.084,,915.983,111.392,1.126,112.6,113.944
918.154,807.925,909.115,,918.154,720.052,810.915,,918.154,112.204,1.1211,112.11,113.431
920.326,745.808,841.337,,920.326,664.393,749.018,,920.326,112.254,1.12325,112.325,113.008
922.499,693.508,777.51,,922.499,626.552,695.278,,922.499,110.686,1.11827,111.827,112.632
924.673,647.299,721.022,,924.673,585.166,648.683,,924.673,110.618,1.11152,111.152,112.201
926.847,591.362,667.607,,926.847,544.415,604.98,,926.847,108.623,1.10352,110.352,111.731
929.023,538.788,614.248,,929.023,503.118,561.581,,929.023,107.09,1.09378,109.378,111.216
931.2,496.396,563.272,,931.2,461.003,519.111,,931.2,107.677,1.08507,108.507,110.548
933.377,463.094,519.237,,933.377,423.069,477.983,,933.377,109.461,1.08631,108.631,109.845
935.556,428.064,480.373,,935.556,394.863,441.516,,935.556,108.408,1.08801,108.801,109.323
937.736,398.034,444.932,,937.736,366.565,410.534,,937.736,108.585,1.08379,108.379,108.865
939.916,365.64,411.342,,939.916,346.448,382.393,,939.916,105.54,1.0757,107.57,108.481
942.098,345.336,381.434,,942.098,328.331,358.575,,942.098,105.179,1.06375,106.375,108.061
944.28,316.214,355.373,,944.28,309.213,337.735,,944.28,102.264,1.05223,105.223,107.535
946.464,297.005,330.145,,946.464,292.368,318.275,,946.464,101.586,1.0373,103.73,106.647
948.648,278.795,307.87,,948.648,277.341,301.738,,948.648,100.524,1.02032,102.032,105.508
950.834,269.222,289.539,,950.834,265.768,285.869,,950.834,101.3,1.01284,101.284,104.253
953.02,256.012,276.231,,953.02,255.012,272.17,,953.02,100.392,1.01492,101.492,103.205
955.207,241.62,261.189,,955.207,249.711,262,,955.207,96.7599,0.996905,99.6905,102.148
957.396,236.045,249.103,,957.396,236.5,252.082,,957.396,99.8076,0.988183,98.8183,101.1
959.585,233.015,241.198,,959.585,236.106,242.885,,959.585,98.6908,0.993055,99.3055,100.374
961.775,224.349,236.026,,961.775,229.44,237.911,,961.775,97.7811,0.992077,99.2077,99.8845
963.966,216.227,228.328,,963.966,221.773,231.494,,963.966,97.4992,0.986324,98.6324,99.361
966.159,216.469,222.7,,966.159,219.105,225.236,,966.159,98.7969,0.98874,98.874,98.9396
968.352,212.892,218.985,,968.352,220.619,222.053,,968.352,96.4976,0.986186,98.6186,98.8705
970.546,209.314,215.494,,970.546,218.496,220.446,,970.546,95.7976,0.977537,97.7537,98.6508
972.741,206.464,212.593,,972.741,219.555,220.312,,972.741,94.0375,0.964964,96.4964,98.2132
974.937,207.158,209.294,,974.937,218.158,219.266,,974.937,94.9578,0.954522,95.4522,97.6117
977.134,212.851,210.419,,977.134,219.124,219.024,,977.134,97.1372,0.960715,96.0715,97.0647
979.332,219.999,212.924,,979.332,221.817,219.666,,979.332,99.1804,0.969308,96.9308,96.6404
981.531,228.6,218.852,,981.531,227.964,223.572,,981.531,100.279,0.978889,97.8889,96.5501
983.731,227.11,224.131,,983.731,233.383,227.857,,983.731,97.3121,0.98365,98.365,96.7734
985.932,230.529,227.719,,985.932,240.438,232.49,,985.932,95.8788,0.97948,97.948,97.1862
988.134,237.856,230.755,,988.134,249.583,238.987,,988.134,95.3014,0.965552,96.5552,97.4495
990.336,252.546,237.258,,990.336,255.455,246.471,,990.336,98.8612,0.962619,96.2619,97.4301
992.54,261.053,247.629,,992.54,261.962,253.353,,992.54,99.653,0.977407,97.7407,97.4398
994.745,267.469,255.994,,994.745,274.288,260.722,,994.745,97.5139,0.981866,98.1866,97.4418
996.951,275.885,263.549,,996.951,286.612,270.187,,996.951,96.2573,0.975433,97.5433,97.3467
999.157,285.754,272.144,,999.157,293.481,280.193,,999.157,97.3671,0.971272,97.1272,97.334
1001.365,287.713,280.115,,1001.365,301.168,289.222,,1001.365,95.5324,0.968509,96.8509,97.4714
1003.573,298.763,287.199,,1003.573,303.763,296.508,,1003.573,98.354,0.968607,96.8607,97.4244
1005.783,310.085,296.091,,1005.783,310.267,301.218,,1005.783,99.9413,0.98298,98.298,97.353
1007.993,328.133,307.732,,1007.993,329.769,311.349,,1007.993,99.5039,0.988383,98.8383,97.5135
1010.205,347.726,322.939,,1010.205,350.362,326.477,,1010.205,99.2476,0.989163,98.9163,97.8242
1012.417,368.5,340.772,,1012.417,374.227,345.141,,1012.417,98.4696,0.987341,98.7341,98.1619
1014.631,390,360.479,,1014.631,403,368.867,,1014.631,96.7742,0.977258,97.7258,98.4241
1016.845,420.773,384.006,,1016.845,427.136,393.454,,1016.845,98.5103,0.975986,97.5986,98.4463
1019.06,454.544,411.837,,1019.06,460.817,418.868,,1019.06,98.6387,0.983213,98.3213,98.3653
1021.277,484.952,442.45,,1021.277,488.77,448.532,,1021.277,99.2189,0.98644,98.644,98.2868
1023.494,504.449,469.261,,1023.494,508.176,474.235,,1023.494,99.2666,0.989511,98.9511,98.2751
1025.712,528.4,492.647,,1025.712,529.673,497.215,,1025.712,99.7597,0.990813,99.0813,98.3931
1027.931,546.441,516.372,,1027.931,553.986,519.436,,1027.931,98.6381,0.9941,99.41,98.7329
1030.151,555.663,533.923,,1030.151,563.39,539.993,,1030.151,98.6285,0.988759,98.8759,98.9207
1032.372,565.884,547.822,,1032.372,575.884,555.399,,1032.372,98.2635,0.986358,98.6358,98.9723
1034.594,568.831,558.188,,1034.594,581.558,567.714,,1034.594,97.8116,0.98322,98.322,98.9052
1036.817,572.777,564.589,,1036.817,588.232,576.536,,1036.817,97.3726,0.979278,97.9278,98.7281
1039.041,574.905,569.334,,1039.041,588.632,583.337,,1039.041,97.668,0.975995,97.5995,98.4289
1041.266,571.94,571.411,,1041.266,590.031,586.847,,1041.266,96.9339,0.973698,97.3698,98.1147
1043.492,565.702,569.54,,1043.492,586.793,588.034,,1043.492,96.4057,0.968549,96.8549,97.7879
1045.718,563.735,565.849,,1045.718,596.644,589.947,,1045.718,94.4843,0.959152,95.9152,97.3616
1047.946,558.586,563.44,,1047.946,593.313,592.824,,1047.946,94.1469,0.950433,95.0433,96.817
1050.175,555.617,560.431,,1050.175,601.617,594.302,,1050.175,92.3539,0.943007,94.3007,96.2113
1052.405,560.192,560.154,,1052.405,602.011,599.239,,1052.405,93.0534,0.934776,93.4776,95.4654
1054.635,555.403,560.404,,1054.635,596.403,597.902,,1054.635,93.1255,0.937285,93.7285,94.7895
1056.867,550.886,557.862,,1056.867,592.068,595.968,,1056.867,93.0444,0.93606,93.606,94.2382
1059.099,538.276,552.615,,1059.099,580.549,590.142,,1059.099,92.7184,0.93641,93.641,93.8728
1061.333,525.302,541.729,,1061.333,581.393,583.967,,1061.333,90.3523,0.927671,92.7671,93.5456
1063.567,518.963,531.59,,1063.567,572.872,579.42,,1063.567,90.5897,0.917453,91.7453,93.1872
1065.802,510.349,523.084,,1065.802,567.258,573.583,,1065.802,89.9677,0.911958,91.1958,92.7639
1068.039,505.371,514.989,,1068.039,565.462,569.197,,1068.039,89.3731,0.904764,90.4764,92.1946
1070.276,497.756,507.976,,1070.276,558.937,565.166,,1070.276,89.054,0.898809,89.8809,91.5238
1072.514,489.684,500.255,,1072.514,559.139,561.587,,1072.514,87.5782,0.890788,89.0788,90.769
1074.753,480.702,492.372,,1074.753,550.884,558.469,,1074.753,87.2601,0.881646,88.1646,90.0467
1076.993,473.173,484.802,,1076.993,535.083,550.983,,1076.993,88.4298,0.879884,87.9884,89.3873
1079.234,464.643,476.756,,1079.234,534.007,542.727,,1079.234,87.0107,0.878446,87.8446,88.8377
1081.476,460.566,470.08,,1081.476,529.385,537.937,,1081.476,87.0002,0.873857,87.3857,88.3179
1083.719,451.306,463.307,,1083.719,527.215,532.68,,1083.719,85.6019,0.869766,86.9766,87.8553
1085.963,440.408,453.806,,1085.963,520.772,529.228,,1085.963,84.5683,0.857487,85.7487,87.3766
1088.208,435.145,444.723,,1088.208,513.782,522.837,,1088.208,84.6945,0.850595,85.0595,86.8465
1090.454,436.245,439.532,,1090.454,508.245,517.41,,1090.454,85.8336,0.849486,84.9486,86.2598
1092.772,440.797,439.13,,1092.772,503.615,512.319,,1092.772,87.5266,0.857142,85.7142,85.8499
1094.985,434.984,438.826,,1094.985,503.075,508.097,,1094.985,86.465,0.863666,86.3666,85.6569
1097.197,423.806,433.205,,1097.197,501.351,505.686,,1097.197,84.5328,0.856668,85.6668,85.5616
1099.409,422.535,427.785,,1099.409,492.535,500.414,,1099.409,85.7878,0.854862,85.4862,85.5745
1101.622,417.717,424.452,,1101.622,486.626,494.006,,1101.622,85.8394,0.859206,85.9206,85.7344
1103.834,407.807,419.148,,1103.834,478.08,487.981,,1103.834,85.301,0.858943,85.8943,85.8613
1106.047,403.713,412.143,,1106.047,472.804,481.235,,1106.047,85.387,0.856428,85.6428,85.7895
1108.259,399.072,407.344,,1108.259,469.89,475.543,,1108.259,84.9288,0.856586,85.6586,85.6804
1110.472,391.612,401.723,,1110.472,464.157,470.658,,1110.472,84.3706,0.853535,85.3535,85.6578
1112.684,394.422,397.785,,1112.684,458.24,466.471,,1112.684,86.0732,0.852756,85.2756,85.5637
1114.897,384.958,393.903,,1114.897,439.867,458.028,,1114.897,87.5169,0.859999,85.9999,85.5392
1117.109,377.31,388.85,,1117.109,433.31,445.914,,1117.109,87.0762,0.87203,87.203,85.739
1119.321,368.297,380.632,,1119.321,426.297,436.608,,1119.321,86.3945,0.871792,87.1792,86.0391
1121.534,362.282,372.169,,1121.534,422.645,429.973,,1121.534,85.7178,0.865565,86.5565,86.2783
1123.746,356.265,365.565,,1123.746,415.719,425.571,,1123.746,85.6985,0.858999,85.8999,86.4564
1125.959,347.519,358.719,,1125.959,403.973,416.838,,1125.959,86.0253,0.860573,86.0573,86.5523
1128.171,343.317,351.216,,1128.171,398.589,409.039,,1128.171,86.1331,0.858637,85.8637,86.4484
1130.384,335.931,344.902,,1130.384,395.84,403.913,,1130.384,84.8653,0.853902,85.3902,86.145
1132.596,320.543,336.087,,1132.596,378.543,395.556,,1132.596,84.6781,0.849657,84.9657,85.8039
1134.809,314.335,326.434,,1134.809,374.335,384.54,,1134.809,83.9716,0.848893,84.8893,85.5491
1137.021,311.307,319.788,,1137.021,371.398,379.121,,1137.021,83.8203,0.843498,84.3498,85.2734
1139.233,304.459,313.67,,1139.233,349.913,370.158,,1139.233,87.0099,0.847395,84.7395,84.9987
1141.446,288.336,304.79,,1141.446,346.154,357.45,,1141.446,83.297,0.852679,85.2679,84.9089
1143.658,277.939,293.174,,1143.658,340.03,350.921,,1143.658,81.7396,0.83544,83.544,84.6924
1145.871,272.903,284.441,,1145.871,331.449,342.534,,1145.871,82.3363,0.830402,83.0402,84.3301
1148.083,261.23,275.443,,1148.083,325.32,335.189,,1148.083,80.2994,0.821754,82.1754,83.9109
1150.296,256.19,266.835,,1150.296,310.099,325.84,,1150.296,82.6156,0.818915,81.8915,83.4147
1152.508,250.513,260.479,,1152.508,304.513,314.779,,1152.508,82.2668,0.827497,82.7497,82.9017
1154.721,246.651,254.183,,1154.721,298.015,308.209,,1154.721,82.7646,0.824712,82.4712,82.5202
1156.933,236.879,247.477,,1156.933,288.97,300.036,,1156.933,81.9736,0.824823,82.4823,82.3898
1159.145,227.651,239.807,,1159.145,283.56,294.558,,1159.145,80.2832,0.814123,81.4123,82.2222
1161.358,219.33,232.16,,1161.358,274.875,287.645,,1161.358,79.7926,0.807104,80.7104,82.0442
1163.57,210.643,223.415,,1163.57,266.734,280.18,,1163.57,78.9712,0.797399,79.7399,81.6339
1165.783,207.864,215.843,,1165.783,261.591,272.169,,1165.783,79.4614,0.79305,79.305,81.0168
1167.995,208.446,212.233,,1167.995,257.901,265.682,,1167.995,80.824,0.798822,79.8822,80.4827
1170.208,202.119,209.115,,1170.208,253.846,260.44,,1170.208,79.6227,0.802927,80.2927,80.1176
1172.42,196.789,204.306,,1172.42,242.062,253.921,,1172.42,81.2969,0.804607,80.4607,79.9692
1174.633,192.367,199.387,,1174.633,239.549,247.296,,1174.633,80.3038,0.806269,80.6269,80.032
1176.845,187.307,193.859,,1176.845,234.216,242.148,,1176.845,79.9719,0.800581,80.0581,80.1693
1179.057,184.337,189.809,,1179.057,225.701,236.343,,1179.057,81.6731,0.80311,80.311,80.3077
1181.27,176.093,184.398,,1181.27,220.366,229.356,,1181.27,79.9093,0.803982,80.3982,80.3708
1183.482,177.12,179.517,,1183.482,216.211,224.618,,1183.482,81.92,0.79921,79.921,80.3321
1185.695,178.328,179.461,,1185.695,208.601,218.908,,1185.695,85.4876,0.8198,81.98,80.452
1187.907,171.808,177.792,,1187.907,205.99,213.488,,1187.907,83.406,0.832799,83.2799,80.9637
1190.12,172.741,175.061,,1190.12,198.65,208.843,,1190.12,86.9575,0.838243,83.8243,81.6232
1192.332,169.765,173.412,,1192.332,194.219,202.265,,1192.332,87.4091,0.857354,85.7354,82.5153
1194.545,162.424,170.16,,1194.545,193.06,197.549,,1194.545,84.1314,0.861355,86.1355,83.6528
1196.757,164.628,165.412,,1196.757,191.265,194.712,,1196.757,86.0732,0.849522,84.9522,84.5047
1198.969,173.196,166.658,,1198.969,187.559,192.304,,1198.969,92.3421,0.866639,86.6639,85.1217
1201.182,170.127,168.873,,1201.182,188.127,189.623,,1201.182,90.432,0.890568,89.0568,86.0899
1203.394,170.33,168.976,,1203.394,189.694,189.042,,1203.394,89.792,0.893857,89.3857,86.9913
1205.607,171.352,169.341,,1205.607,193.898,190.265,,1205.607,88.3722,0.890029,89.0029,87.5944
1207.819,169.829,170.144,,1207.819,189.193,191.079,,1207.819,89.7649,0.89044,89.044,88.2462
1210.032,166.034,169.338,,1210.032,182.125,187.297,,1210.032,91.1649,0.904116,90.4116,89.1019
1212.244,165.966,167.728,,1212.244,182.512,184.81,,1212.244,90.9343,0.907569,90.7569,89.6233
1214.456,156.082,165.443,,1214.456,171.173,181.129,,1214.456,91.1838,0.9134,91.34,89.9733
1216.669,142.744,158.048,,1216.669,158.562,173.626,,1216.669,90.0241,0.910278,91.0278,90.3171
1218.881,128.952,146.622,,1218.881,149.498,164.236,,1218.881,86.2567,0.892751,89.2751,90.5011
1221.094,118.072,135.065,,1221.094,137.617,153.905,,1221.094,85.7975,0.877584,87.7584,90.2494
1223.306,114.102,124.919,,1223.306,130.102,143.31,,1223.306,87.702,0.871667,87.1667,89.6093
1225.519,111.044,120.283,,1225.519,112.498,132.02,,1225.519,98.7075,0.911093,91.1093,89.338
1227.731,96.896,112.761,,1227.731,103.806,118.791,,1227.731,93.3434,0.94924,94.924,89.8631
1229.944,90.843,102.695,,1229.944,97.388,110.104,,1229.944,93.2795,0.93271,93.271,90.5023
1232.156,93.792,97.2969,,1232.156,86.883,100.672,,1232.156,107.952,0.966469,96.6469,91.7369
1234.368,84.654,92.8344,,1234.368,89.199,93.3588,,1234.368,94.9047,0.994383,99.4383,94.0044
1236.581,75.519,85.6104,,1236.581,82.519,88.89,,1236.581,91.5171,0.963105,96.3105,95.6758
1238.793,75.205,79.9164,,1238.793,82.296,84.0546,,1238.793,91.3835,0.950768,95.0768,96.0831
1241.006,70.169,75.3756,,1241.006,74.533,80.6064,,1241.006,94.1449,0.935106,93.5106,95.9693
1242.586,66.639,72.2258,,1242.586,64.806,76.3368,,1242.586,102.828,0.946147,94.6147,