File: public_html/data/backup/makrolon-dark_blue_543.csv
wavelength_nm,intensity,intensity_smoothed,,wavelength_nm2,intensity_i0,intensity_i0_smoothed,,wavelength_nm3,,transmission,transmission_perc,transmission_perc_smoothed
173.232,5.472,#N/A,,173.232,26.024,#N/A,,173.232,21.0267,#N/A,#N/A,#N/A
175.084,8.153,6.34764,,175.084,37.766,29.5889,,175.084,21.5882,0.214527,21.4527,#N/A
176.935,8.79,7.44831,,176.935,39.857,35.1131,,176.935,22.0538,0.212123,21.2123,#N/A
178.787,14.244,9.18886,,178.787,37.584,36.6576,,178.787,37.8991,0.250667,25.0667,#N/A
180.639,14.608,11.815,,180.639,37.128,36.8855,,180.639,39.345,0.320316,32.0316,#N/A
182.491,8.607,11.3603,,182.491,35.582,36.7372,,182.491,24.1892,0.309231,30.9231,#N/A
184.342,7.335,9.66973,,184.342,43.491,38.4251,,184.342,16.8656,0.251652,25.1652,26.4449
186.194,12.607,9.41134,,186.194,45.403,41.4134,,186.194,27.7669,0.227254,22.7254,26.8847
188.046,13.607,10.905,,188.046,44.584,44.1242,,188.046,30.5199,0.247144,24.7144,27.2769
189.897,10.062,11.8307,,189.897,43.31,43.8577,,189.897,23.2325,0.269752,26.9752,26.9694
191.749,6.516,10.0061,,191.749,43.4,43.6501,,191.749,15.0138,0.229235,22.9235,25.3245
193.601,14.425,9.89527,,193.601,44.945,44.6684,,193.601,32.0948,0.221527,22.1527,24.0189
195.453,11.516,11.3032,,195.453,40.853,43.7579,,195.453,28.1889,0.258312,25.8312,24.3008
197.304,9.788,11.2185,,197.304,44.67,42.9419,,197.304,21.9118,0.261247,26.1247,24.755
199.156,11.425,11.0916,,199.156,41.124,43.5822,,199.156,27.7818,0.254498,25.4498,24.6241
201.008,10.97,10.326,,201.008,35.305,40.7299,,201.008,31.0721,0.253524,25.3524,24.6344
202.86,20.152,13.2159,,202.86,44.395,41.25,,202.86,45.3925,0.320385,32.0385,26.1497
204.711,17.606,16.3937,,204.711,43.03,42.5105,,204.711,40.9156,0.385638,38.5638,28.6571
206.563,12.242,15.7588,,206.563,41.575,41.5212,,206.563,29.4456,0.379535,37.9535,31.0299
208.415,11.151,13.9704,,208.415,41.756,41.3975,,208.415,26.7051,0.33747,33.747,32.8005
210.267,5.424,11.0602,,210.267,38.119,40.5497,,210.267,14.2291,0.272755,27.2755,33.5656
212.118,3.606,6.88205,,212.118,41.481,39.618,,212.118,8.69314,0.17371,17.371,32.1958
213.97,13.878,8.12745,,213.97,40.389,40.2939,,213.97,34.3608,0.201704,20.1704,28.8946
215.822,10.514,10.5205,,215.822,34.661,38.4798,,215.822,30.3338,0.273403,27.3403,26.4185
217.673,10.333,9.16201,,217.673,41.933,38.7408,,217.673,24.6417,0.236495,23.6495,24.281
219.525,11.696,10.7016,,219.525,44.568,41.7339,,219.525,26.243,0.256426,25.6426,23.0952
221.377,4.15,9.46069,,221.377,44.749,42.7725,,221.377,9.27395,0.221186,22.1186,23.2285
223.229,6.696,7.10986,,223.229,43.657,42.8089,,223.229,15.3377,0.166084,16.6084,23.3244
225.08,8.15,8.34397,,225.08,40.566,42.6129,,225.08,20.0907,0.195809,19.5809,22.2588
226.932,9.696,8.54487,,226.932,42.474,41.5992,,226.932,22.8281,0.205409,20.5409,21.1272
228.784,10.423,9.30885,,228.784,44.291,42.036,,228.784,23.533,0.221449,22.1449,20.59
230.636,8.877,8.66966,,230.636,42.926,42.496,,230.636,20.6798,0.204011,20.4011,19.8925
232.487,7.332,9.11366,,232.487,39.743,42.2131,,232.487,18.4485,0.215897,21.5897,20.327
234.339,5.968,7.8487,,234.339,42.197,41.7141,,234.339,14.1432,0.188155,18.8155,20.8117
236.191,8.059,8.14208,,236.191,45.378,43.5585,,236.191,17.7597,0.186923,18.6923,20.5798
238.043,5.604,7.65817,,238.043,56.013,46.5648,,238.043,10.0048,0.164462,16.4462,19.9506
239.894,13.058,7.64022,,239.894,61.103,53.244,,239.894,21.3705,0.143494,14.3494,18.518
241.746,13.331,10.6487,,241.746,58.284,56.4093,,241.746,22.8725,0.188776,18.8776,17.8927
243.598,11.331,11.256,,243.598,62.828,58.4586,,243.598,18.035,0.192546,19.2546,17.6145
245.449,12.24,12.2297,,245.449,67.464,62.2546,,245.449,18.143,0.196447,19.6447,17.8475
247.301,16.694,12.6386,,247.301,74.008,67.0479,,247.301,22.557,0.188501,18.8501,17.9181
249.153,18.33,15.7162,,249.153,76.462,71.9343,,249.153,23.9727,0.21848,21.848,19.1486
251.005,17.512,16.6487,,251.005,78.824,74.4033,,251.005,22.2166,0.223763,22.3763,20.2585
252.856,18.603,18.2756,,252.856,84.096,77.687,,252.856,22.1211,0.235246,23.5246,21.0056
254.681,19.239,17.583,,254.681,83.277,80.7354,,254.681,23.1024,0.217785,21.7785,21.5572
256.513,23.057,20.3099,,256.513,85.73,82.9864,,256.513,26.8949,0.244738,24.4738,22.4002
258.347,21.421,20.6783,,258.347,87.911,85.0558,,258.347,24.3667,0.243115,24.3115,23.2071
260.181,21.421,20.7695,,260.181,84.546,85.9536,,260.181,25.3365,0.241636,24.1636,23.5823
262.017,17.875,19.9604,,262.017,84.181,85.3776,,262.017,21.234,0.23379,23.379,23.7615
263.853,22.057,20.046,,263.853,88.362,86.106,,263.853,24.9621,0.232806,23.2806,23.7944
265.691,22.329,21.0323,,265.691,92.361,87.7832,,265.691,24.1758,0.239593,23.9593,24.0139
267.53,21.238,21.0915,,267.53,91.36,89.4831,,267.53,23.2465,0.235704,23.5704,23.8248
269.369,21.874,21.2933,,269.369,92.995,90.0457,,269.369,23.5217,0.236472,23.6472,23.7043
271.21,23.602,22.0047,,271.21,97.903,92.4478,,271.21,24.1075,0.238023,23.8023,23.6175
273.052,17.601,21.2446,,273.052,94.902,94.2616,,273.052,18.5465,0.225379,22.5379,23.631
274.895,14.329,18.3645,,274.895,88.446,92.3501,,274.895,16.2008,0.198858,19.8858,22.9939
276.739,25.328,19.3201,,276.739,88.082,90.1149,,276.739,28.755,0.214394,21.4394,22.3376
278.584,23.146,22.6538,,278.584,88.171,88.4909,,278.584,26.2513,0.256002,25.6002,22.5184
280.431,22.601,22.7285,,280.431,90.716,89.2624,,280.431,24.914,0.254626,25.4626,22.9288
282.278,22.51,23.33,,282.278,89.714,89.8304,,282.278,25.0908,0.259712,25.9712,23.3838
284.126,27.964,24.2227,,284.126,92.441,90.4788,,284.126,30.2506,0.267717,26.7717,24.418
285.976,25.509,26.3027,,285.976,93.803,91.1303,,285.976,27.1942,0.288627,28.8627,26.0554
287.826,23.782,25.4244,,287.826,92.802,91.8899,,287.826,25.6266,0.276683,27.6683,26.9364
289.678,25.236,25.2512,,289.678,89.255,90.7646,,289.678,28.274,0.278206,27.8206,27.3045
291.531,21.054,24.331,,291.531,92.527,90.6522,,291.531,22.7544,0.268399,26.8399,27.6167
293.385,20.6,22.4083,,293.385,90.526,91.3556,,293.385,22.7559,0.245287,24.5287,27.4173
295.239,17.691,20.8053,,295.239,91.07,90.4104,,295.239,19.4257,0.230121,23.0121,26.5574
297.095,18.236,19.0783,,297.095,94.887,92.2607,,297.095,19.2186,0.206787,20.6787,25.2028
298.952,23.054,20.5103,,298.952,95.431,93.5602,,298.952,24.1578,0.21922,21.922,23.9736
300.81,18.508,20.8542,,300.81,93.793,94.3954,,300.81,19.7328,0.220924,22.0924,22.9216
302.669,21.326,19.8096,,302.669,88.338,91.817,,302.669,24.1414,0.215751,21.5751,22.0818
304.53,29.599,22.5583,,304.53,89.609,89.7095,,304.53,33.0313,0.251459,25.1459,22.0754
306.391,23.235,24.7478,,306.391,88.062,89.1865,,306.391,26.3848,0.277483,27.7483,23.1271
308.253,16.962,21.4413,,308.253,93.152,90.2314,,308.253,18.2089,0.237626,23.7626,23.9585
310.117,19.598,19.972,,310.117,91.605,91.4441,,310.117,21.394,0.218407,21.8407,23.9611
311.981,20.144,20.2135,,311.981,91.422,91.101,,311.981,22.0341,0.22188,22.188,24.047
313.847,21.053,19.6673,,313.847,95.33,91.2889,,313.847,22.0843,0.215441,21.5441,23.8707
315.713,24.689,21.2875,,315.713,94.329,93.5318,,315.713,26.1733,0.227596,22.7596,22.9739
317.581,23.961,23.6678,,317.581,98.418,94.6417,,317.581,24.3462,0.250078,25.0078,22.5849
319.45,22.143,22.5842,,319.45,96.326,96.297,,319.45,22.9876,0.234527,23.4527,22.8059
321.319,23.597,22.2469,,321.319,90.416,95.3567,,321.319,26.0983,0.233302,23.3302,23.065
323.19,19.779,22.0255,,323.19,94.142,94.0786,,323.19,21.0098,0.234118,23.4118,23.3736
325.062,23.779,21.3645,,325.062,93.14,93.6586,,325.062,25.5304,0.228111,22.8111,23.5464
326.935,20.779,20.9538,,326.935,97.503,94.264,,326.935,21.3111,0.222289,22.2289,23.2884
328.809,24.415,20.1782,,328.809,101.683,97.2686,,328.809,24.0109,0.207448,20.7448,22.6817
330.685,22.142,22.5298,,330.685,99.227,99.6732,,330.685,22.3145,0.226036,22.6036,22.4751
332.561,18.869,20.6003,,332.561,99.771,99.774,,332.561,18.9123,0.206469,20.6469,22.0392
334.438,23.596,20.591,,334.438,97.679,98.6843,,334.438,24.1567,0.208655,20.8655,21.6264
336.316,25.596,22.4296,,336.316,102.496,99.0986,,336.316,24.9727,0.226336,22.6336,21.5483
338.196,28.778,24.7881,,338.196,102.131,101.62,,338.196,28.1775,0.24393,24.393,22.0242
340.076,26.778,25.7803,,340.076,99.947,101.981,,340.076,26.7922,0.252795,25.2795,22.6899
341.958,24.959,25.9951,,341.958,96.491,99.8221,,341.958,25.8667,0.260414,26.0414,23.4345
343.84,24.232,25.423,,343.84,102.49,99.8795,,343.84,23.6433,0.254536,25.4536,24.4028
345.724,24.777,25.1112,,345.724,103.579,101.973,,345.724,23.9209,0.246254,24.6254,24.942
347.609,22.415,25.0041,,347.609,98.042,100.992,,347.609,22.8627,0.247586,24.7586,25.1736
349.495,19.868,23.5106,,349.495,106.676,101.908,,349.495,18.6246,0.230704,23.0704,24.9372
351.382,19.414,21.3321,,351.382,105.402,104.69,,351.382,18.419,0.203764,20.3764,24.0735
353.269,17.461,19.6164,,353.269,105.292,104.512,,353.269,16.5834,0.187695,18.7695,22.8423
355.158,23.002,19.168,,355.158,115.346,107.968,,355.158,19.9417,0.177534,17.7534,21.5381
357.048,29.126,22.7029,,357.048,110.673,111.077,,357.048,26.3172,0.204389,20.4389,20.5552
358.94,26.662,25.0564,,358.94,111.762,109.872,,358.94,23.8561,0.228051,22.8051,20.209
360.832,26.44,25.2385,,360.832,113.053,110.748,,360.832,23.3873,0.227892,22.7892,20.4092
362.725,27.666,26.2494,,362.725,115.754,112.854,,362.725,23.9007,0.232596,23.2596,21.0434
364.619,27.176,26.8528,,364.619,111.863,113.697,,364.619,24.294,0.236179,23.6179,22.0531
366.515,26.756,27.7418,,366.515,120.36,114.787,,366.515,22.23,0.24168,24.168,23.0724
368.411,22.136,26.3816,,368.411,120.326,118.882,,368.411,18.3967,0.221915,22.1915,23.2449
370.308,26.45,24.9374,,370.308,118.77,118.855,,370.308,22.2699,0.209813,20.9813,22.8638
372.207,22.953,24.3732,,372.207,125.223,119.59,,372.207,18.3297,0.203806,20.3806,22.4396
374.107,27.009,24.4849,,374.107,125.543,122.975,,374.107,21.5137,0.199104,19.9104,21.7773
376.007,30.131,26.8926,,376.007,125.651,124.338,,376.007,23.9799,0.216287,21.6287,21.2511
377.909,34.61,29.7789,,377.909,131.77,125.91,,377.909,26.2655,0.23651,23.651,21.1827
379.812,33.464,33.0385,,379.812,139.358,130.63,,379.812,24.013,0.252916,25.2916,21.8916
381.716,38.492,34.2812,,381.716,139.065,134.212,,381.716,27.6791,0.255425,25.5425,22.7102
383.62,33.823,35.8066,,383.62,145.735,138.843,,383.62,23.2086,0.257892,25.7892,23.8085
385.526,33.065,33.8314,,385.526,137.409,139.962,,385.526,24.0632,0.241719,24.1719,24.5508
387.433,33.753,33.7162,,387.433,141.168,139.514,,387.433,23.9098,0.241669,24.1669,24.8791
389.341,33.904,33.8544,,389.341,145.868,142.1,,389.341,23.2429,0.238244,23.8244,24.7565
391.25,38.993,35.4492,,391.25,151.691,146.125,,391.25,25.7055,0.242595,24.2595,24.5622
393.161,41.948,37.4335,,393.161,160.884,150.977,,393.161,26.0734,0.247942,24.7942,24.3604
395.072,47.188,40.7951,,395.072,183.671,161.883,,395.072,25.6916,0.252004,25.2004,24.3887
396.984,47.733,43.927,,396.984,208.373,180.311,,396.984,22.9075,0.243618,24.3618,24.5159
398.897,57.802,47.6057,,398.897,246.89,204.525,,398.897,23.412,0.232762,23.2762,24.4347
400.812,64.258,54.8393,,400.812,313.157,242.129,,400.812,20.5194,0.226488,22.6488,24.2399
402.727,78.071,62.3694,,402.727,415.887,302.785,,402.727,18.7722,0.205986,20.5986,23.6126
404.644,103.327,76.3577,,404.644,560.653,396.039,,404.644,18.4298,0.192803,19.2803,22.586
406.561,151.721,102.617,,406.561,774.298,531.273,,406.561,19.5947,0.193153,19.3153,21.4785
408.48,216.595,144.211,,408.48,1093.481,734.641,,408.48,19.8078,0.196302,19.6302,20.6664
410.4,320.5,206.979,,410.4,1550.196,1031.22,,410.4,20.6748,0.200712,20.0712,20.0499
412.32,485.015,306.234,,412.32,2222.732,1462.76,,412.32,21.8207,0.209353,20.9353,19.8267
414.242,715.236,454.314,,414.242,3163.461,2085.57,,414.242,22.6093,0.217837,21.7837,20.1277
416.165,1065.87,673.198,,416.165,4451.47,2958.03,,416.165,23.9442,0.227583,22.7583,20.7456
418.089,1555.861,996.412,,418.089,6190.243,4157.76,,418.089,25.1341,0.239651,23.9651,21.5309
420.014,2238.791,1452.32,,420.014,8451.974,5767.44,,420.014,26.4884,0.251815,25.1815,22.4867
421.939,3187.777,2091.48,,421.939,11338.22,7870.72,,421.939,28.1153,0.265729,26.5729,23.5749
423.866,4471.555,2973.95,,423.866,14858.071,10548.9,,423.866,30.0951,0.281921,28.1921,24.7874
425.795,6174.724,4167.89,,425.795,18999.297,13820.5,,425.795,32.4997,0.301572,30.1572,26.1868
427.724,8411.793,5755.08,,427.724,23830.084,17724.6,,427.724,35.299,0.324695,32.4695,27.7967
429.654,11333.771,7851.04,,429.654,29330.442,22281.3,,429.654,38.6417,0.352359,35.2359,29.6772
431.585,15027.868,10570.7,,431.585,35524.486,27504.1,,431.585,42.3028,0.384333,38.4333,31.8981
433.517,19638.125,14026.3,,433.517,42427.542,33418,,433.517,46.2863,0.419723,41.9723,34.4904
435.451,25292.339,18350.5,,435.451,49887.621,39995.1,,435.451,50.6986,0.458818,45.8818,37.4678
437.385,31768.666,23602.3,,437.385,57254.674,47073.2,,437.385,55.4866,0.501396,50.1396,40.8321
439.32,38315.572,29549.2,,439.32,62514.822,53892.5,,439.32,61.2904,0.5483,54.83,44.5848
441.257,43830.277,35609.7,,441.257,64000,58913.9,,441.257,68.4848,0.604436,60.4436,48.7848
443.194,46838.912,40804.3,,443.194,63674.793,61526.8,,443.194,73.5596,0.663196,66.3196,53.4692
445.133,46691.414,44054.7,,445.133,62227.685,62338.3,,445.133,75.0332,0.706704,70.6704,58.3772
447.072,43517.421,44747.6,,447.072,59293.563,61635.3,,447.072,73.3932,0.726007,72.6007,63.0181
449.013,38021.016,42777.2,,449.013,53142.307,59010.9,,449.013,71.5457,0.724904,72.4904,66.8972
450.955,31617.124,38664.8,,450.955,44477.703,53779.7,,450.955,71.0853,0.718947,71.8947,69.7167
452.897,25739.032,33451.3,,452.897,36198.569,46764.1,,452.897,71.1051,0.715321,71.5321,71.3437
454.841,20926.055,28155.7,,454.841,29497.312,39472.2,,454.841,70.9422,0.713306,71.3306,71.9162
456.786,17209.675,23395.4,,456.786,24370.579,32900.3,,456.786,70.6166,0.7111,71.11,71.8157
458.732,14333.567,19406.1,,458.732,20454.45,27407.8,,458.732,70.0755,0.708051,70.8051,71.4837
460.679,11978.684,16143.3,,460.679,17336.43,22959.3,,460.679,69.0954,0.703129,70.3129,71.1518
462.627,9972.787,13448.1,,462.627,14707.613,19335.7,,462.627,67.807,0.695507,69.5507,70.7861
464.576,8272.056,11190.9,,464.576,12463.222,16334.4,,464.576,66.3717,0.685114,68.5114,70.2902
466.526,6852.74,9293.48,,466.526,10551.892,13810.2,,466.526,64.9432,0.672941,67.2941,69.6106
468.477,5693.187,7713.56,,468.477,9025.241,11703.9,,468.477,63.0807,0.65906,65.906,68.7263
470.429,4784.261,6416.58,,470.429,7818.333,9984.2,,470.429,61.1929,0.642674,64.2674,67.6161
472.382,4096.082,5380.34,,472.382,6899.26,8608.48,,472.382,59.3699,0.625004,62.5004,66.2918
474.336,3553.414,4566.13,,474.336,6186.437,7525.12,,474.336,57.4388,0.606785,60.6785,64.7946
476.292,3125.011,3923.46,,476.292,5650.679,6682.84,,476.292,55.3033,0.587095,58.7095,63.1457
478.248,2785.267,3416.46,,478.248,5248.95,6036.29,,478.248,53.0633,0.565986,56.5986,61.3462
480.205,2501.569,3012.19,,480.205,4936.14,5542.55,,480.205,50.6786,0.543467,54.3467,59.411
482.164,2275.442,2685.57,,482.164,4730.842,5169.31,,482.164,48.098,0.519522,51.9522,57.3545
484.123,2092.921,2420.06,,484.123,4621.49,4909.27,,484.123,45.2867,0.492957,49.2957,55.1487
486.083,1984.421,2217.8,,486.083,4648.985,4759.32,,486.083,42.685,0.465991,46.5991,52.7896
488.045,1919.163,2078.07,,488.045,4831.615,4743.7,,488.045,39.7209,0.438069,43.8069,50.2944
490.007,1889.016,1986.89,,490.007,5132.308,4858.48,,490.007,36.8064,0.408952,40.8952,47.6628
491.971,1880.649,1932.81,,491.971,5580.085,5109.18,,491.971,33.7029,0.378301,37.8301,44.896
493.936,1905.356,1912.33,,493.936,6134.021,5491.74,,493.936,31.0621,0.34822,34.822,42.026
495.901,1925.077,1914.68,,495.901,6805.139,5993.71,,495.901,28.2886,0.319448,31.9448,39.1147
497.868,1946.461,1926.06,,497.868,7560.527,6605.84,,497.868,25.745,0.291569,29.1569,36.1853
499.836,1959.642,1939.96,,499.836,8398.979,7313.26,,499.836,23.3319,0.265267,26.5267,33.2927
501.804,1965.762,1953.64,,501.804,9288.26,8101.74,,501.804,21.1639,0.241138,24.1138,30.4931
503.774,1952.836,1959.38,,503.774,10243.017,8963.53,,503.774,19.065,0.218595,21.8595,27.8406
505.745,1930.615,1952.05,,505.745,11150.964,9863.56,,505.745,17.3134,0.197905,19.7905,25.3397
507.717,1894.38,1933.98,,507.717,12055.608,10765.2,,507.717,15.7137,0.179652,17.9652,23.0197
509.69,1847.076,1902.92,,509.69,12973.535,11674.3,,509.69,14.2373,0.163001,16.3001,20.89
511.664,1771.479,1856.47,,511.664,13871.801,12583.8,,511.664,12.7704,0.147528,14.7528,18.9441
513.639,1681.385,1789.27,,513.639,14671.604,13461.2,,513.639,11.4601,0.13292,13.292,17.1583
515.615,1559.892,1703.92,,515.615,15397.06,14281.8,,515.615,10.1311,0.119307,11.9307,15.5249
517.592,1417.757,1593.08,,517.592,16069.592,15040.5,,517.592,8.82261,0.105919,10.5919,14.008
519.57,1269.866,1465.54,,519.57,16637.44,15729,,519.57,7.63258,0.0931743,9.31743,12.5777
521.549,1107.962,1322.68,,521.549,17143.404,16334.7,,521.549,6.46291,0.0809741,8.09741,11.2179
523.529,947.405,1168.19,,523.529,17567.495,16868.9,,523.529,5.39294,0.0692513,6.92513,9.92008
525.51,797.204,1014.31,,525.51,17912.017,17326.5,,525.51,4.45067,0.0585407,5.85407,8.68081
527.493,651.864,864.998,,527.493,18129.767,17691.4,,527.493,3.59555,0.0488938,4.88938,7.50869
529.476,528.471,721.394,,529.476,18298.241,17965.2,,529.476,2.8881,0.0401551,4.01551,6.41506
531.46,421.831,593.284,,531.46,18376.976,18162.2,,531.46,2.29543,0.0326658,3.26658,5.40909
533.446,338.408,482.447,,533.446,18394.461,18277.2,,533.446,1.83973,0.0263961,2.63961,4.50508
535.432,272.053,390.137,,535.432,18380.008,18335.7,,535.432,1.48016,0.0212774,2.12774,3.71216
537.419,223.968,315.132,,537.419,18314.218,18342.9,,537.419,1.22292,0.0171801,1.71801,3.03009
539.408,183.451,256.786,,539.408,18241.306,18310.1,,539.408,1.00569,0.0140242,1.40242,2.45929
541.397,156.427,211.22,,541.397,18116.433,18244.7,,541.397,0.863454,0.0115771,1.15771,1.99352
543.388,134.529,177.245,,543.388,18010.748,18152.8,,543.388,0.746937,0.00976408,0.976408,1.62231
545.379,115.807,150.439,,545.379,17860.086,18041.7,,545.379,0.648412,0.00833841,0.833841,1.33123
547.372,108.524,130.674,,547.372,17739.367,17915.4,,547.372,0.611769,0.00729393,0.729393,1.10664
549.365,94.842,116.477,,549.365,17602.812,17792,,549.365,0.538789,0.00654661,0.654661,0.936024
551.36,85.326,102.869,,551.36,17418.725,17651.3,,551.36,0.489852,0.00582782,0.582782,0.805731
553.356,80.59,93.1514,,553.356,17167.843,17468.1,,553.356,0.469424,0.00533265,0.533265,0.705358
555.352,74.246,84.4561,,555.352,16964.686,17256.7,,555.352,0.43765,0.00489411,0.489411,0.627522
557.35,67.038,77.1619,,557.35,16744.941,17055.5,,557.35,0.400348,0.00452416,0.452416,0.566586
559.349,57.288,69.0206,,559.349,16493.069,16829.6,,559.349,0.347346,0.00410114,0.410114,0.514892
561.348,49.115,60.5787,,561.348,16250.673,16589.7,,561.348,0.302234,0.00365159,0.365159,0.46836
563.349,42.982,52.9697,,563.349,15993.017,16348.1,,563.349,0.268755,0.00324011,0.324011,0.426025
565.351,42.487,47.133,,565.351,15706.557,16090.7,,565.351,0.270505,0.0029292,0.29292,0.385812
567.354,44.721,45.9218,,567.354,15408.025,15816.3,,567.354,0.290245,0.00290345,0.290345,0.351164
569.358,33.737,41.819,,569.358,15122.221,15533,,569.358,0.223096,0.00269226,0.269226,0.32139
571.363,26.402,35.03,,571.363,14803.019,15236.5,,571.363,0.178356,0.00229909,0.229909,0.29348
573.368,26.285,30.3331,,573.368,14476.131,14927.8,,573.368,0.181575,0.00203198,0.203198,0.267513
575.375,27.05,29.0776,,575.375,14137.525,14603.3,,575.375,0.191335,0.00199117,0.199117,0.246706
577.383,21.773,26.7359,,577.383,13856.848,14288,,577.383,0.157128,0.00187121,0.187121,0.227745
579.392,22.331,24.2264,,579.392,13553.915,13989.5,,579.392,0.164757,0.00173175,0.173175,0.20709
581.402,24.01,23.7332,,581.402,13220.763,13677.3,,581.402,0.181608,0.00173522,0.173522,0.191634
583.413,23.809,23.5812,,583.413,12883.828,13351.8,,583.413,0.184798,0.00176615,0.176615,0.183727
585.425,27.662,25.1588,,585.425,12565.841,13024.3,,585.425,0.220136,0.00193168,0.193168,0.18108
587.439,23.422,25.4537,,587.439,12218.756,12701.1,,587.439,0.191689,0.00200406,0.200406,0.182008
589.453,23.056,23.6206,,589.453,11860.998,12358.4,,589.453,0.194385,0.0019113,0.19113,0.184861
591.468,26.249,24.4275,,591.468,11532.923,12014.7,,591.468,0.227601,0.00203314,0.203314,0.190068
593.484,26.778,25.8531,,593.484,11205.222,11680.4,,593.484,0.238978,0.00221336,0.221336,0.198098
595.501,24.736,25.5191,,595.501,10855.083,11343.6,,595.501,0.227875,0.00224965,0.224965,0.206237
597.519,23.793,25.2679,,597.519,10499.447,10998.9,,597.519,0.226612,0.00229731,0.229731,0.212031
599.539,27.804,25.563,,599.539,10162.072,10650.4,,599.539,0.273606,0.00240019,0.240019,0.219524
601.559,33.493,28.4451,,601.559,9798.777,10300.6,,601.559,0.341808,0.00276148,0.276148,0.232345
603.58,26.951,29.7174,,603.58,9459.679,9949.95,,603.58,0.284904,0.00298669,0.298669,0.248198
605.602,25.658,27.9776,,605.602,9106.042,9603.99,,605.602,0.281769,0.00291312,0.291312,0.261438
607.626,20.652,26.1619,,607.626,8752.966,9252.65,,607.626,0.235943,0.0028275,0.28275,0.272565
609.65,21.35,23.4778,,609.65,8417.211,8907.23,,609.65,0.253647,0.00263581,0.263581,0.278992
611.675,25.883,24.506,,611.675,8081.183,8566.92,,611.675,0.320287,0.00286053,0.286053,0.283456
613.702,24.094,24.707,,613.702,7750.473,8230.89,,613.702,0.310871,0.00300174,0.300174,0.28455
615.729,26.618,24.6673,,615.729,7428.717,7899.72,,615.729,0.358312,0.00312256,0.312256,0.286223
617.757,24.908,24.7619,,617.757,7107.102,7574.24,,617.757,0.350466,0.00326922,0.326922,0.292569
619.787,28.623,25.0233,,619.787,6777.411,7248.79,,619.787,0.422329,0.00345207,0.345207,0.305146
621.817,32.123,27.4638,,621.817,6479.382,6926.44,,621.817,0.495773,0.00396507,0.396507,0.326358
623.849,33.452,30.7141,,623.849,6197.39,6621.21,,623.849,0.539776,0.00463875,0.463875,0.355315
625.881,32.179,32.3044,,625.881,5898.7,6323.7,,625.881,0.545527,0.00510847,0.510847,0.392669
627.915,27.669,31.1559,,627.915,5597.269,6026.39,,627.915,0.49433,0.00516992,0.516992,0.430143
629.949,19.617,27.421,,629.949,5317.543,5729.63,,629.949,0.368911,0.00478583,0.478583,0.46043
631.985,16.842,22.7444,,631.985,5078.235,5452.72,,631.985,0.331651,0.0041712,0.41712,0.473193
634.021,22.148,20.3601,,634.021,4845.814,5199.17,,634.021,0.457054,0.00391604,0.391604,0.466735
636.059,28.652,22.1229,,636.059,4614.617,4957.05,,636.059,0.620897,0.00446292,0.446292,0.455764
638.098,27.295,24.8533,,638.098,4396.936,4722.31,,638.098,0.620773,0.00526297,0.526297,0.454955
640.137,24.918,25.2507,,640.137,4190.298,4500.78,,640.137,0.594659,0.00561029,0.561029,0.464726
642.178,24.457,24.5014,,642.178,3977.679,4285.8,,642.178,0.614856,0.00571688,0.571688,0.488092
644.219,24.34,23.8939,,644.219,3776.175,4074.28,,644.219,0.644568,0.00586457,0.586457,0.523319
646.262,25.938,25.3085,,646.262,3579.935,3869.46,,646.262,0.724538,0.00654056,0.654056,0.565493
648.306,26,25.4671,,648.306,3390.26,3668.67,,648.306,0.766903,0.00694178,0.694178,0.601873
650.35,33.621,27.2004,,650.35,3226.089,3481.54,,650.35,1.04216,0.00781275,0.781275,0.64055
652.396,35.937,30.9137,,652.396,3054.629,3304.68,,652.396,1.17648,0.00935454,0.935454,0.701253
654.443,40.539,34.5219,,654.443,2884.204,3130.37,,654.443,1.40555,0.011028,1.1028,0.792271
656.49,46.706,38.6854,,656.49,2731.414,2962.54,,656.49,1.70996,0.0130582,1.30582,0.911509
658.539,55.797,45.6447,,658.539,2580.731,2804.5,,658.539,2.16206,0.0162755,1.62755,1.07394
660.589,80.449,56.4902,,660.589,2427.603,2648.13,,660.589,3.31393,0.0213321,2.13321,1.30828
662.64,103.649,73.5648,,662.64,2288.091,2497.08,,662.64,4.52993,0.0294604,2.94604,1.65795
664.691,142.901,97.499,,664.691,2164.156,2356.33,,664.691,6.60308,0.0413775,4.13775,2.17961
666.744,193.776,133.454,,666.744,2045.696,2226.29,,666.744,9.47238,0.0599448,5.99448,2.98159
668.798,246.874,178.592,,668.798,1925.154,2100.21,,668.798,12.8236,0.0850352,8.50352,4.17712
670.853,302.971,227.881,,670.853,1815.214,1979.64,,670.853,16.6906,0.115112,11.5112,5.84337
672.909,368.29,283.65,,672.909,1715.56,1867.31,,672.909,21.4676,0.151903,15.1903,8.04282
674.965,440.544,345.801,,674.965,1611.947,1762.64,,674.965,27.3299,0.196183,19.6183,10.8568
677.023,504.407,411.714,,677.023,1524.155,1660.97,,677.023,33.0942,0.247876,24.7876,14.3376
679.082,561.979,475.25,,679.082,1432.954,1566.48,,679.082,39.2182,0.303386,30.3386,18.4437
681.142,612.348,533.416,,681.142,1354.302,1476.52,,681.142,45.215,0.361266,36.1266,23.1207
683.203,654.787,585.843,,683.203,1270.438,1392.78,,683.203,51.5403,0.42063,42.063,28.2918
685.265,684.499,630.065,,685.265,1184.315,1306.68,,685.265,57.797,0.482188,48.2188,33.8682
687.327,708.011,664.24,,687.327,1118.864,1225.41,,687.327,63.2795,0.542054,54.2054,39.6816
689.391,731.608,693.979,,689.391,1065.445,1157.43,,689.391,68.6669,0.599585,59.9585,45.5843
691.456,735.066,715.732,,691.456,1002.409,1093.7,,691.456,73.3299,0.654414,65.4414,51.4679
693.522,729.507,724.76,,693.522,947.984,1031.78,,693.522,76.9535,0.702437,70.2437,57.1889
695.589,720.343,726.327,,695.589,895.937,974.024,,695.589,80.4011,0.745697,74.5697,62.6015
697.657,704.195,719.483,,697.657,844.05,920.439,,697.657,83.4305,0.781673,78.1673,67.584
699.726,690.503,708.547,,699.726,793.442,867.434,,699.726,87.0263,0.816831,81.6831,72.1162
701.796,673.8,695.108,,701.796,752.07,817.616,,701.796,89.5927,0.850164,85.0164,76.2279
703.867,644.957,676.138,,703.867,717.422,774.53,,703.867,89.8993,0.872965,87.2965,79.8563
705.939,618.374,653.897,,705.939,679.315,735.617,,705.939,91.0291,0.888909,88.8909,82.9437
708.012,586.155,627.192,,708.012,636.773,694.687,,708.012,92.0509,0.902841,90.2841,85.5434
710.085,557.284,597.515,,710.085,606.364,655.382,,710.085,91.9059,0.911704,91.1704,87.6812
712.16,532.609,569.123,,712.16,566.369,620.068,,712.16,94.0392,0.91784,91.784,89.2754
714.236,502.751,543.524,,714.236,532.352,582.695,,714.236,94.4396,0.932776,93.2776,90.5573
716.313,464.829,512.096,,716.313,505.864,550.157,,716.313,91.8881,0.930818,93.0818,91.5558
718.391,429.185,477.83,,718.391,472.365,517.728,,718.391,90.8588,0.922935,92.2935,92.1321
720.47,410.776,447.794,,720.47,447.827,487.368,,720.47,91.7265,0.9188,91.88,92.3706
722.55,393.737,425.098,,722.55,433.743,462.584,,722.55,90.7766,0.918964,91.8964,92.4642
724.631,370.088,403.988,,724.631,409.02,440.922,,724.631,90.4816,0.916234,91.6234,92.3127
726.713,339.427,378.396,,726.713,388.541,418.692,,726.713,87.3594,0.903756,90.3756,91.8332
728.796,325.657,353.467,,728.796,371.186,398.504,,728.796,87.7342,0.886987,88.6987,91.1396
730.88,309.479,335.77,,730.88,349.794,379.032,,730.88,88.4746,0.88586,88.586,90.4843
732.965,287.904,316.431,,732.965,336.604,360.43,,732.965,85.532,0.877925,87.7925,89.7697
735.051,276.685,298.055,,735.051,326.387,344.836,,735.051,84.7721,0.864338,86.4338,88.8236
737.138,270.734,285.302,,737.138,309.643,331.615,,737.138,87.4342,0.86034,86.034,87.836
739.226,258.17,273.683,,739.226,297.074,317.355,,739.226,86.9043,0.862385,86.2385,87.2114
741.315,245.826,262.646,,741.315,293.86,307.387,,741.315,83.6541,0.854448,85.4448,86.6735
743.405,231.102,250.432,,743.405,277.141,297.104,,743.405,83.3879,0.842911,84.2911,85.9572
745.496,217.072,238.114,,745.496,267.722,284.507,,745.496,81.0811,0.836936,83.6936,85.3616
747.588,201.706,223.279,,747.588,263.788,275.873,,747.588,76.4652,0.809354,80.9354,84.5634
749.681,192.336,210.983,,749.681,251.092,266.248,,749.681,76.5998,0.792429,79.2429,83.3186
751.775,183.468,198.375,,751.775,245.16,256.03,,751.775,74.836,0.774814,77.4814,81.7844
753.87,182.289,190.789,,753.87,247.608,251.097,,753.87,73.62,0.759821,75.9821,80.1769
755.966,173.317,184.62,,755.966,236.574,246.921,,755.966,73.2612,0.74769,74.769,78.4589
758.063,147.785,173.095,,758.063,221.635,236.698,,758.063,66.6795,0.731288,73.1288,76.7843
760.161,127.696,153.838,,760.161,205.981,223.779,,760.161,61.9941,0.687453,68.7453,74.8832
762.26,125.364,139.537,,762.26,201.861,212.771,,762.26,62.1041,0.655809,65.5809,72.5942
764.36,125.793,132.19,,764.36,202.38,207.356,,764.36,62.1568,0.637502,63.7502,70.212
766.461,127.049,129.055,,766.461,204.113,204.812,,766.461,62.2444,0.630114,63.0114,67.9051
768.562,122.927,128.263,,768.562,201.143,203.635,,768.562,61.1142,0.629867,62.9867,65.7617
770.665,118.588,123.976,,770.665,193.588,199.951,,770.665,61.2579,0.620031,62.0031,64.0529
772.769,116.367,120.642,,772.769,193.397,196.739,,772.769,60.17,0.613208,61.3208,62.9801
774.874,108.72,116.77,,774.874,185.475,193.222,,774.874,58.6171,0.604334,60.4334,62.2453
776.98,104.573,110.91,,776.98,189.418,190.42,,776.98,55.2075,0.582449,58.2449,61.4077
779.087,102.547,106.938,,779.087,181.983,187.565,,779.087,56.3498,0.570138,57.0138,60.3085
781.195,95.155,103.202,,781.195,180.753,184.49,,781.195,52.6437,0.559391,55.9391,59.1362
783.304,93.074,98.6979,,783.304,173.935,181.758,,783.304,53.5108,0.543019,54.3019,57.8045
785.414,85.73,94.0113,,785.414,167.726,177.097,,785.414,51.1131,0.530847,53.0847,56.3468
787.525,80.718,88.7115,,787.525,158.788,170.284,,787.525,50.8338,0.520963,52.0963,54.9775
789.637,78.158,83.6818,,789.637,156.031,163.472,,789.637,50.0913,0.511903,51.1903,53.8317
791.749,79.213,80.4447,,791.749,153.463,159.225,,791.749,51.617,0.505227,50.5227,52.7165
793.863,73.274,77.6767,,793.863,150.563,156.128,,793.863,48.6667,0.497521,49.7521,51.7723
795.978,69.367,73.8536,,795.978,150.986,153.586,,795.978,45.9427,0.480861,48.0861,50.812
798.094,72.274,71.9544,,798.094,150.643,152.262,,798.094,47.977,0.472569,47.2569,49.8007
800.211,66.281,71.1403,,800.211,146.816,150.657,,800.211,45.1456,0.4722,47.22,48.9923
802.329,60.092,66.5724,,802.329,147.662,149.629,,802.329,40.6956,0.444917,44.4917,47.9445
804.448,62.236,64.2344,,804.448,146.668,148.293,,804.448,42.4333,0.433158,43.3158,46.6425
806.567,64.919,63.3436,,806.567,155.107,149.196,,806.567,41.8543,0.424566,42.4566,45.4159
808.688,61.756,63.4169,,808.688,147.652,150.275,,808.688,41.8254,0.422006,42.2006,44.4176
810.81,59.376,62.3404,,810.81,146.27,148.305,,810.81,40.5934,0.420352,42.0352,43.3921
812.933,56.054,60.3146,,812.933,144.419,147.154,,812.933,38.8135,0.409874,40.9874,42.4604
815.057,55.657,57.5894,,815.057,153.045,147.675,,815.057,36.3664,0.389975,38.9975,41.6607
817.181,52.112,55.4986,,817.181,155.736,151.328,,817.181,33.4618,0.366743,36.6743,40.6122
819.307,55.852,54.6043,,819.307,151.672,152.245,,819.307,36.8242,0.35866,35.866,39.3997
821.434,50.333,53.5188,,821.434,160.59,153.76,,821.434,31.3425,0.348067,34.8067,38.1321
823.562,53.031,51.5001,,823.562,163.951,158.246,,823.562,32.3456,0.325444,32.5444,36.5448
825.69,55.441,53.0588,,825.69,174.003,163.075,,825.69,31.8621,0.325365,32.5365,35.1061
827.82,60.354,56.0776,,827.82,189.855,173.097,,827.82,31.7895,0.323966,32.3966,34.0512
829.951,63.066,59.2221,,829.951,205.274,186.255,,829.951,30.7228,0.317963,31.7963,33.2729
832.082,66.773,63.0442,,832.082,215.495,198.43,,832.082,30.9859,0.317716,31.7716,32.5038
834.215,67.522,64.8028,,834.215,216.898,206.786,,834.215,31.1308,0.313381,31.3381,32.0586
836.349,69.737,66.459,,836.349,219.103,211.731,,836.349,31.8284,0.313885,31.3885,31.8336
838.483,76.476,69.9892,,838.483,241.528,220.303,,838.483,31.6634,0.317695,31.7695,31.6599
840.619,85.153,75.5446,,840.619,278.337,239.836,,840.619,30.5935,0.314984,31.4984,31.5664
842.755,103.852,84.2628,,842.755,333.384,272.42,,842.755,31.1509,0.309312,30.9312,31.4389
844.893,131.097,100.938,,844.893,400.011,320.492,,844.893,32.7733,0.314948,31.4948,31.4027
847.032,160.85,123.999,,847.032,474.535,380.132,,847.032,33.8963,0.3262,32.62,31.58
849.171,190.117,151.016,,849.171,556.983,450.155,,849.171,34.1334,0.335475,33.5475,31.9255
851.312,217.076,177.656,,851.312,630.508,525.136,,851.312,34.4287,0.338305,33.8305,32.3042
853.453,259.243,209.034,,853.453,703.737,599.605,,853.453,36.8381,0.348619,34.8619,32.9268
855.596,295.071,243.939,,855.596,769.709,671.021,,855.596,38.3354,0.363534,36.3534,33.8271
857.739,330.61,279.341,,857.739,829.831,738.184,,857.739,39.8406,0.378416,37.8416,34.8607
859.884,367.383,314.856,,859.884,871.417,796.955,,859.884,42.1593,0.395074,39.5074,35.9784
862.029,403.875,351.965,,862.029,905.793,845.071,,862.029,44.588,0.416491,41.6491,37.3736
864.175,429.282,384.742,,864.175,932.101,884.121,,864.175,46.0553,0.435169,43.5169,39.0482
866.323,463.679,416.567,,866.323,956.712,915.345,,866.323,48.4659,0.455093,45.5093,40.829
868.471,499.049,449.827,,868.471,993.127,945.857,,868.471,50.2503,0.475577,47.5577,42.7221
870.621,539.288,485.562,,870.621,1031.509,979.757,,870.621,52.2815,0.495595,49.5595,44.7014
872.771,593.243,527.096,,872.771,1082.553,1018.45,,872.771,54.8004,0.517546,51.7546,46.7283
874.922,660.192,577.819,,874.922,1157.861,1070.42,,874.922,57.0182,0.539809,53.9809,48.7778
877.075,736.47,639.58,,877.075,1234.603,1135.19,,877.075,59.6524,0.563413,56.3413,50.9199
879.228,819.624,711.734,,879.228,1331.316,1211.7,,879.228,61.5649,0.587382,58.7382,53.1263
881.382,900.845,789.301,,881.382,1420.587,1298.52,,881.382,63.4136,0.607848,60.7848,55.3638
883.537,973.752,866.374,,883.537,1504.383,1384.85,,883.537,64.7277,0.625608,62.5608,57.5558
885.694,1049.719,941.193,,885.694,1575.576,1466.43,,885.694,66.6245,0.641826,64.1826,59.6377
887.851,1118.068,1015.53,,887.851,1624.133,1535.65,,887.851,68.8409,0.661302,66.1302,61.6382
890.009,1174.008,1084.41,,890.009,1658.197,1592.38,,890.009,70.8003,0.681002,68.1002,63.5575
892.168,1189.44,1136.75,,892.168,1654.916,1627.2,,892.168,71.8731,0.698593,69.8593,65.4012
894.328,1172.67,1160.64,,894.328,1623.094,1635.81,,894.328,72.2491,0.709518,70.9518,67.1255
896.489,1145.393,1160.42,,896.489,1559.063,1613.7,,896.489,73.4668,0.719106,71.9106,68.7131
898.651,1091.5,1139.35,,898.651,1463.155,1561.85,,898.651,74.5991,0.729488,72.9488,70.1643
900.815,1030.009,1100.01,,900.815,1371.84,1486.62,,900.815,75.0823,0.73994,73.994,71.4376
902.979,953.862,1044.52,,902.979,1278.203,1404.37,,902.979,74.6252,0.743765,74.3765,72.4622
905.144,887.375,979.229,,905.144,1176.028,1312.13,,905.144,75.4553,0.746289,74.6289,73.247
907.31,815.72,912.472,,907.31,1086.914,1218.25,,907.31,75.0492,0.749003,74.9003,73.9121
909.477,742.517,841.827,,909.477,995.007,1125.59,,909.477,74.6243,0.747901,74.7901,74.3814
911.644,680.625,774.403,,911.644,906.569,1034.2,,911.644,75.077,0.748796,74.8796,74.6485
913.813,612.83,707.303,,913.813,837.096,949.149,,913.813,73.209,0.745197,74.5197,74.7376
915.983,561.191,644.163,,915.983,779.347,876.084,,915.983,72.0078,0.735275,73.5275,74.6162
918.154,517.825,589.255,,918.154,720.052,810.915,,918.154,71.9149,0.726655,72.6655,74.2517
920.326,479.004,542.195,,920.326,664.393,749.018,,920.326,72.0965,0.723875,72.3875,73.7878
922.499,441.183,499.29,,922.499,626.552,695.278,,922.499,70.4144,0.718115,71.8115,73.2598
924.673,400.362,458.528,,924.673,585.166,648.683,,924.673,68.4185,0.706859,70.6859,72.5449
926.847,365.268,419.417,,926.847,544.415,604.98,,926.847,67.0937,0.693274,69.3274,71.7092
929.023,329.265,382.248,,929.023,503.118,561.581,,929.023,65.4449,0.680664,68.0664,70.8195
931.2,294.716,345.636,,931.2,461.003,519.111,,931.2,63.9293,0.665822,66.5822,69.7743
933.377,268.622,313.044,,933.377,423.069,477.983,,933.377,63.4937,0.654927,65.4927,68.5524
935.556,239.71,282.705,,935.556,394.863,441.516,,935.556,60.7071,0.640304,64.0304,67.2506
937.736,216.343,253.987,,937.736,366.565,410.534,,937.736,59.019,0.618675,61.8675,65.809
939.916,199.158,228.822,,939.916,346.448,382.393,,939.916,57.4857,0.598395,59.8395,64.2232
942.098,188.791,210.023,,942.098,328.331,358.575,,942.098,57.5002,0.585716,58.5716,62.6122
944.28,172.515,195.004,,944.28,309.213,337.735,,944.28,55.7916,0.577389,57.7389,61.0861
946.464,157.785,178.703,,946.464,292.368,318.275,,946.464,53.9679,0.561474,56.1474,59.5213
948.648,144.599,164.289,,948.648,277.341,301.738,,948.648,52.1376,0.544475,54.4475,57.9864
950.834,129.687,150.648,,950.834,265.768,285.869,,950.834,48.7971,0.526983,52.6983,56.5262
953.02,121.32,138.204,,953.02,255.012,272.17,,953.02,47.5742,0.507785,50.7785,55.0165
955.207,120.498,129.562,,955.207,249.711,262,,955.207,48.255,0.494511,49.4511,53.4131
957.396,114.222,123.025,,957.396,236.5,252.082,,957.396,48.2968,0.488035,48.8035,51.8776
959.585,105.854,116.318,,959.585,236.106,242.885,,959.585,44.8333,0.4789,47.89,50.5114
961.775,100.941,109.161,,961.775,229.44,237.911,,961.775,43.9945,0.458833,45.8833,49.1154
963.966,97.119,104.907,,963.966,221.773,231.494,,963.966,43.7921,0.453174,45.3174,47.8934
966.159,92.934,100.441,,966.159,219.105,225.236,,966.159,42.4153,0.445939,44.5939,46.8927
968.352,89.112,95.1404,,968.352,220.619,222.053,,968.352,40.3918,0.428459,42.8459,45.7852
970.546,87.198,92.1095,,970.546,218.496,220.446,,970.546,39.9083,0.417832,41.7832,44.5451
972.741,78.012,87.2016,,972.741,219.555,220.312,,972.741,35.5319,0.39581,39.581,43.2863
974.937,81.827,82.5805,,974.937,218.158,219.266,,974.937,37.5081,0.376622,37.6622,41.8742
977.134,82.64,82.7317,,977.134,219.124,219.024,,977.134,37.7138,0.377729,37.7729,40.5014
979.332,81.545,81.8596,,979.332,221.817,219.666,,979.332,36.7623,0.372654,37.2654,39.2996
981.531,79.632,80.9243,,981.531,227.964,223.572,,981.531,34.9318,0.361961,36.1961,38.2213
983.731,77.991,78.724,,983.731,233.383,227.857,,983.731,33.4176,0.345497,34.5497,37.1126
985.932,75.35,77.2245,,985.932,240.438,232.49,,985.932,31.3386,0.332163,33.2163,36.1962
988.134,75.8,75.736,,988.134,249.583,238.987,,988.134,30.3707,0.316904,31.6904,35.1306
990.336,78.795,76.131,,990.336,255.455,246.471,,990.336,30.845,0.308884,30.8884,33.9022
992.54,75.063,76.1395,,992.54,261.962,253.353,,992.54,28.6542,0.300528,30.0528,32.6769
994.745,79.15,76.2644,,994.745,274.288,260.722,,994.745,28.8565,0.292512,29.2512,31.5266
996.951,78.69,78.0572,,996.951,286.612,270.187,,996.951,27.4552,0.2889,28.89,30.5608
999.157,72.776,77.0692,,999.157,293.481,280.193,,999.157,24.7975,0.275057,27.5057,29.6923
1001.365,71.589,74.2769,,1001.365,301.168,289.222,,1001.365,23.7705,0.256816,25.6816,28.7057
1003.573,71.948,72.6826,,1003.573,303.763,296.508,,1003.573,23.6856,0.245129,24.5129,27.5883
1005.783,72.306,71.8098,,1005.783,310.267,301.218,,1005.783,23.3044,0.238398,23.8398,26.508
1007.993,72.028,71.594,,1007.993,329.769,311.349,,1007.993,21.842,0.229948,22.9948,25.4104
1010.205,74.386,72.6005,,1010.205,350.362,326.477,,1010.205,21.2312,0.222375,22.2375,24.2868
1012.417,73.017,73.6372,,1012.417,374.227,345.141,,1012.417,19.5114,0.213354,21.3354,23.336
1014.631,69.284,72.2822,,1014.631,403,368.867,,1014.631,17.1921,0.195957,19.5957,22.4028
1016.845,80.006,72.6821,,1016.845,427.136,393.454,,1016.845,18.7308,0.184728,18.4728,21.3651
1019.06,85.364,78.5398,,1019.06,460.817,418.868,,1019.06,18.5245,0.187505,18.7505,20.4489
1021.277,75.539,80.0526,,1021.277,488.77,448.532,,1021.277,15.4549,0.178477,17.8477,19.615
1023.494,77.533,78.7432,,1023.494,508.176,474.235,,1023.494,15.2571,0.166043,16.6043,18.6743
1025.712,78.709,79.6897,,1025.712,529.673,497.215,,1025.712,14.8599,0.160272,16.0272,17.82
1027.931,72.976,77.8535,,1027.931,553.986,519.436,,1027.931,13.1729,0.149881,14.9881,17.123
1030.151,68.787,73.7343,,1030.151,563.39,539.993,,1030.151,12.2095,0.136547,13.6547,16.2506
1032.372,66.69,70.0143,,1032.372,575.884,555.399,,1032.372,11.5805,0.126061,12.6061,15.1884
1034.594,68.229,67.807,,1034.594,581.558,567.714,,1034.594,11.7321,0.119439,11.9439,14.2176
1036.817,67.222,68.2616,,1036.817,588.232,576.536,,1036.817,11.4278,0.118399,11.8399,13.3824
1039.041,65.761,67.0324,,1039.041,588.632,583.337,,1039.041,11.1718,0.114912,11.4912,12.6246
1041.266,66.118,66.031,,1041.266,590.031,586.847,,1041.266,11.2059,0.112518,11.2518,12.0397
1043.492,55.565,62.6503,,1043.492,586.793,588.034,,1043.492,9.46927,0.106542,10.6542,11.5998
1045.718,51.194,56.5251,,1045.718,596.644,589.947,,1045.718,8.58033,0.0958139,9.58139,11.1501
1047.946,44.187,51.768,,1047.946,593.313,592.824,,1047.946,7.4475,0.0873243,8.73243,10.5942
1050.175,41.27,46.461,,1050.175,601.617,594.302,,1050.175,6.85985,0.0781775,7.81775,9.91049
1052.405,42.172,45.2115,,1052.405,602.011,599.239,,1052.405,7.00519,0.0754482,7.54482,9.19574
1054.635,42.255,43.669,,1054.635,596.403,597.902,,1054.635,7.08497,0.0730372,7.30372,8.49643
1056.867,37.974,41.8509,,1056.867,592.068,595.968,,1056.867,6.41379,0.0702234,7.02234,7.91089
1059.099,33.603,37.7805,,1059.099,580.549,590.142,,1059.099,5.78814,0.0640193,6.40193,7.41528
1061.333,35.14,36.4952,,1061.333,581.393,583.967,,1061.333,6.0441,0.0624953,6.24953,7.02138
1063.567,32.223,34.6309,,1063.567,572.872,579.42,,1063.567,5.62482,0.0597682,5.97682,6.71956
1065.802,27.035,32.9631,,1065.802,567.258,573.583,,1065.802,4.76591,0.0574688,5.74688,6.4084
1068.039,31.468,30.2249,,1068.039,565.462,569.197,,1068.039,5.56501,0.0531009,5.31009,6.06636
1070.276,35.719,32.4024,,1070.276,558.937,565.166,,1070.276,6.39052,0.0573325,5.73325,5.84255
1072.514,30.424,32.5426,,1072.514,559.139,561.587,,1072.514,5.44122,0.0579475,5.79475,5.75511
1074.753,30.765,31.4877,,1074.753,550.884,558.469,,1074.753,5.58466,0.0563823,5.63823,5.66362
1076.993,26.924,29.4815,,1076.993,535.083,550.983,,1076.993,5.03174,0.0535071,5.35071,5.59168
1079.234,26.264,28.1479,,1079.234,534.007,542.727,,1079.234,4.91829,0.0518639,5.18639,5.53595
1081.476,28.603,27.9917,,1081.476,529.385,537.937,,1081.476,5.40306,0.0520353,5.20353,5.48007
1083.719,30.397,28.1626,,1083.719,527.215,532.68,,1083.719,5.76558,0.0528696,5.28696,5.36852
1085.963,23.372,26.3107,,1085.963,520.772,529.228,,1085.963,4.48795,0.0497153,4.97153,5.26443
1088.208,23.892,24.0721,,1088.208,513.782,522.837,,1088.208,4.65022,0.0460413,4.60413,5.10126
1090.454,30.321,25.8453,,1090.454,508.245,517.41,,1090.454,5.96582,0.0499514,4.99514,5.02382
1092.772,24.931,26.1738,,1092.772,503.615,512.319,,1092.772,4.95041,0.0510888,5.10888,5.02353
1094.985,23.904,24.3924,,1094.985,503.075,508.097,,1094.985,4.75158,0.0480074,4.80074,4.96951
1097.197,23.24,23.4264,,1097.197,501.351,505.686,,1097.197,4.63547,0.0463259,4.63259,4.86845
1099.409,20.213,22.1371,,1099.409,492.535,500.414,,1099.409,4.10387,0.0442376,4.42376,4.8152
1101.622,20.184,20.8491,,1101.622,486.626,494.006,,1101.622,4.14774,0.0422041,4.22041,4.73246
1103.834,21.701,21.8332,,1103.834,478.08,487.981,,1103.834,4.5392,0.0447419,4.47419,4.5864
1106.047,22.308,22.0113,,1106.047,472.804,481.235,,1106.047,4.71823,0.0457393,4.57393,4.49286
1108.259,19.006,21.5561,,1108.259,469.89,475.543,,1108.259,4.04478,0.0453293,4.53293,4.45392
1110.472,17.066,19.6233,,1110.472,464.157,470.658,,1110.472,3.67677,0.0416932,4.16932,4.39414
1112.684,10.126,15.9192,,1112.684,458.24,466.471,,1112.684,2.20976,0.0341269,3.41269,4.27101
1114.897,14.913,12.5992,,1114.897,439.867,458.028,,1114.897,3.39034,0.0275075,2.75075,4.01145
1117.109,18.154,14.9413,,1117.109,433.31,445.914,,1117.109,4.18961,0.0335071,3.35071,3.76545
1119.321,19.121,16.9765,,1119.321,426.297,436.608,,1119.321,4.48537,0.0388827,3.88827,3.60876
1121.534,22.361,18.9835,,1121.534,422.645,429.973,,1121.534,5.29073,0.0441505,4.41505,3.58434
1123.746,24.782,21.5105,,1123.746,415.719,425.571,,1123.746,5.96124,0.0505451,5.05451,3.76893
1125.959,23.384,22.5364,,1125.959,403.973,416.838,,1125.959,5.78851,0.0540651,5.40651,4.20071
1128.171,21.985,22.5782,,1128.171,398.589,409.039,,1128.171,5.51571,0.0551981,5.51981,4.67399
1130.384,20.132,22.1664,,1130.384,395.84,403.913,,1130.384,5.08589,0.0548791,5.48791,5.03319
1132.596,20.368,20.8652,,1132.596,378.543,395.556,,1132.596,5.38063,0.0527489,5.27489,5.26867
1134.809,25.786,21.0977,,1134.809,374.335,384.54,,1134.809,6.88848,0.0548648,5.48648,5.39978
1137.021,22.022,23.0326,,1137.021,371.398,379.121,,1137.021,5.92949,0.0607525,6.07525,5.5329
1139.233,15.348,20.9825,,1139.233,349.913,370.158,,1139.233,4.38623,0.0566852,5.66852,5.60594
1141.446,15.673,18.1709,,1141.446,346.154,357.45,,1141.446,4.52775,0.0508347,5.08347,5.55071
1143.658,14.907,16.7815,,1143.658,340.03,350.921,,1143.658,4.38402,0.0478214,4.78214,5.4532
1145.871,14.322,15.9746,,1145.871,331.449,342.534,,1145.871,4.32103,0.0466365,4.66365,5.33595
1148.083,17.373,16.7494,,1148.083,325.32,335.189,,1148.083,5.34028,0.04997,4.997,5.14615
1150.296,18.059,17.0708,,1150.296,310.099,325.84,,1150.296,5.82362,0.0523901,5.23901,4.99676
1152.508,17.836,16.8576,,1152.508,304.513,314.779,,1152.508,5.85722,0.0535536,5.35536,4.98349
1154.721,17.34,17.7961,,1154.721,298.015,308.209,,1154.721,5.8185,0.0577404,5.77404,5.1227
1156.933,17.388,17.5923,,1156.933,288.97,300.036,,1156.933,6.01723,0.058634,5.8634,5.33833
1159.145,14.527,17.0592,,1159.145,283.56,294.558,,1159.145,5.12308,0.0579145,5.79145,5.55757
1161.358,18.029,16.9207,,1161.358,274.875,287.645,,1161.358,6.55898,0.0588249,5.88249,5.6802
1163.57,16.621,17.5794,,1163.57,266.734,280.18,,1163.57,6.2313,0.0627434,6.27434,5.85413
1165.783,13.668,16.4814,,1165.783,261.591,272.169,,1165.783,5.22495,0.0605559,6.05559,5.96429
1167.995,13.168,14.7201,,1167.995,257.901,265.682,,1167.995,5.10584,0.0554048,5.54048,5.93497
1170.208,19.85,15.8683,,1170.208,253.846,260.44,,1170.208,7.8197,0.0609288,6.09288,5.92105
1172.42,17.894,17.6379,,1172.42,242.062,253.921,,1172.42,7.39232,0.0694622,6.94622,6.1112
1174.633,18.12,18.2792,,1174.633,239.549,247.296,,1174.633,7.56421,0.0739163,7.39163,6.32667
1176.845,16.71,18.0373,,1176.845,234.216,242.148,,1176.845,7.13444,0.0744887,7.44887,6.55006
1179.057,14.48,16.8295,,1179.057,225.701,236.343,,1179.057,6.41557,0.071208,7.1208,6.82295
1181.27,17.523,17.5562,,1181.27,220.366,229.356,,1181.27,7.95177,0.0765459,7.65459,7.16491
1183.482,19.93,20.0567,,1183.482,216.211,224.618,,1183.482,9.21785,0.0892927,8.92927,7.54787
1185.695,20.154,20.7826,,1185.695,208.601,218.908,,1185.695,9.66151,0.0949376,9.49376,7.9642
1187.907,18.468,19.6571,,1187.907,205.99,213.488,,1187.907,8.96548,0.0920762,9.20762,8.33195
1190.12,24.874,20.276,,1190.12,198.65,208.843,,1190.12,12.5215,0.0970872,9.70872,8.73158
1192.332,31.915,23.7824,,1192.332,194.219,202.265,,1192.332,16.4325,0.117581,11.7581,9.466
1194.545,25.593,26.3069,,1194.545,193.06,197.549,,1194.545,13.2565,0.133166,13.3166,10.4044
1196.757,23.543,24.7156,,1196.757,191.265,194.712,,1196.757,12.3091,0.126935,12.6935,11.1268
1198.969,38.493,29.0799,,1198.969,187.559,192.304,,1198.969,20.5231,0.151218,15.1218,12.019
1201.182,39.261,35.1194,,1201.182,188.127,189.623,,1201.182,20.8694,0.185206,18.5206,13.6068
1203.394,41.575,38.0422,,1203.394,189.694,189.042,,1203.394,21.9169,0.201237,20.1237,15.3308
1205.607,43.07,40.9275,,1205.607,193.898,190.265,,1205.607,22.2127,0.215108,21.5108,16.9246
1207.819,42.111,41.4279,,1207.819,189.193,191.079,,1207.819,22.2582,0.216811,21.6811,18.536
1210.032,42.698,42.0161,,1210.032,182.125,187.297,,1210.032,23.4443,0.224328,22.4328,20.2105
1212.244,38.649,41.1086,,1212.244,182.512,184.81,,1212.244,21.1761,0.222437,22.2437,21.2817
1214.456,40.599,39.9231,,1214.456,171.173,181.129,,1214.456,23.7181,0.220413,22.0413,21.8094
1216.669,34.278,39.4545,,1216.669,158.562,173.626,,1216.669,21.618,0.227239,22.7239,22.1535
1218.881,27.048,34.8423,,1218.881,149.498,164.236,,1218.881,18.0925,0.212148,21.2148,22.1633
1221.094,22.181,30.0411,,1221.094,137.617,153.905,,1221.094,16.1179,0.195192,19.5192,21.7832
1223.306,16.952,24.4289,,1223.306,130.102,143.31,,1223.306,13.0298,0.170462,17.0462,20.8739
1225.519,19.178,21.5023,,1225.519,112.498,132.02,,1225.519,17.0474,0.162871,16.2871,19.7799
1227.731,16.132,19.3861,,1227.731,103.806,118.791,,1227.731,15.5405,0.163194,16.3194,18.6347
1229.944,14.905,17.4339,,1229.944,97.388,110.104,,1229.944,15.3048,0.158341,15.8341,17.4822
1232.156,16.498,17.1661,,1232.156,86.883,100.672,,1232.156,18.9888,0.170514,17.0514,16.7706
1234.368,13.272,16.3071,,1234.368,89.199,93.3588,,1234.368,14.8791,0.174671,17.4671,16.5818
1236.581,9.048,13.8638,,1236.581,82.519,88.89,,1236.581,10.9647,0.155966,15.5966,16.5495
1238.793,12.644,11.3619,,1238.793,82.296,84.0546,,1238.793,15.3641,0.135174,13.5174,16.0881
1241.006,15.695,13.6441,,1241.006,74.533,80.6064,,1241.006,21.0578,0.169268,16.9268,15.9978
1242.586,14.241,14.4773,,1242.586,64.806,76.3368,,1242.586,21.9748,0.189651,18.9651,