File: public_html/data/backup/makrolon-bright_yellow_Y06.csv
wavelength_nm,intensity,intensity_smoothed,,wavelength_nm2,intensity_i0,intensity_i0_smoothed,,wavelength_nm3,,transmission,transmission_perc,transmission_perc_smoothed
173.232,23.872,#N/A,,173.232,26.024,#N/A,,173.232,91.7307,#N/A,#N/A,#N/A
175.084,29.872,25.5273,,175.084,37.766,29.5889,,175.084,79.0976,0.86273,86.273,#N/A
176.935,29.689,27.7602,,176.935,39.857,35.1131,,176.935,74.4888,0.790595,79.0595,#N/A
178.787,31.234,28.4852,,178.787,37.584,36.6576,,178.787,83.1045,0.777061,77.7061,#N/A
180.639,33.961,31.1841,,180.639,37.128,36.8855,,180.639,91.47,0.84543,84.543,#N/A
182.491,24.597,30.2338,,182.491,35.582,36.7372,,182.491,69.1276,0.822975,82.2975,#N/A
184.342,26.415,27.7229,,184.342,43.491,38.4251,,184.342,60.7367,0.72148,72.148,80.2131
186.194,28.323,27.5112,,186.194,45.403,41.4134,,186.194,62.3813,0.664306,66.4306,77.2639
188.046,25.505,26.859,,188.046,44.584,44.1242,,188.046,57.2066,0.608713,60.8713,74.3415
189.897,27.504,26.6597,,189.897,43.31,43.8577,,189.897,63.505,0.607869,60.7869,70.5943
191.749,29.413,27.9276,,191.749,43.4,43.6501,,191.749,67.7719,0.639806,63.9806,66.4551
193.601,29.503,28.9975,,193.601,44.945,44.6684,,193.601,65.6425,0.649174,64.9174,63.9443
195.453,27.866,28.3247,,195.453,40.853,43.7579,,195.453,68.2104,0.647305,64.7305,63.1152
197.304,23.684,28.031,,197.304,44.67,42.9419,,197.304,53.0199,0.652767,65.2767,63.3614
199.156,26.32,26.0322,,199.156,41.124,43.5822,,199.156,64.0016,0.597314,59.7314,63.5214
201.008,31.683,27.5597,,201.008,35.305,40.7299,,201.008,89.7408,0.676645,67.6645,64.0576
202.86,33.955,30.1123,,202.86,44.395,41.25,,202.86,76.4838,0.729996,72.9996,65.6679
204.711,27.409,31.1388,,204.711,43.03,42.5105,,204.711,63.6974,0.732495,73.2495,67.3734
206.563,28.045,29.9465,,206.563,41.575,41.5212,,206.563,67.4564,0.721234,72.1234,68.6089
208.415,29.59,30.0326,,208.415,41.756,41.3975,,208.415,70.8641,0.72547,72.547,70.4774
210.267,34.589,31.3276,,210.267,38.119,40.5497,,210.267,90.7395,0.772572,77.2572,72.8824
212.118,31.862,32.7062,,212.118,41.481,39.618,,212.118,76.8111,0.825539,82.5539,74.891
213.97,27.679,31.7138,,213.97,40.389,40.2939,,213.97,68.531,0.787062,78.7062,76.0185
215.822,26.588,28.5127,,215.822,34.661,38.4798,,215.822,76.7087,0.740978,74.0978,76.572
217.673,32.133,27.5889,,217.673,41.933,38.7408,,217.673,76.6294,0.712139,71.2139,76.5696
219.525,29.405,27.5347,,219.525,44.568,41.7339,,219.525,65.9778,0.659767,65.9767,75.6852
221.377,29.223,27.7327,,221.377,44.749,42.7725,,221.377,65.3043,0.648376,64.8376,72.8297
223.229,23.313,27.5478,,223.229,43.657,42.8089,,223.229,53.4004,0.643507,64.3507,69.7405
225.08,23.767,25.7118,,225.08,40.566,42.6129,,225.08,58.5885,0.603382,60.3382,66.9124
226.932,25.13,24.6443,,226.932,42.474,41.5992,,226.932,59.1656,0.592421,59.2421,64.2954
228.784,26.766,24.6642,,228.784,44.291,42.036,,228.784,60.4321,0.586739,58.6739,62.2
230.636,25.402,24.416,,230.636,42.926,42.496,,230.636,59.1763,0.574548,57.4548,60.6607
232.487,22.856,24.6562,,232.487,39.743,42.2131,,232.487,57.5095,0.584089,58.4089,59.417
234.339,26.31,25.0583,,234.339,42.197,41.7141,,234.339,62.3504,0.600716,60.0716,58.8309
236.191,26.764,26.3646,,236.191,45.378,43.5585,,236.191,58.9801,0.605267,60.5267,59.0396
238.043,30.854,27.7967,,238.043,56.013,46.5648,,238.043,55.0836,0.596947,59.6947,59.1709
239.894,32.217,29.5411,,239.894,61.103,53.244,,239.894,52.7257,0.554825,55.4825,58.8994
241.746,43.489,34.4056,,241.746,58.284,56.4093,,241.746,74.6157,0.609927,60.9927,58.9804
243.598,49.67,40.9588,,243.598,62.828,58.4586,,243.598,79.0571,0.700647,70.0647,60.6813
245.449,52.034,45.3355,,245.449,67.464,62.2546,,245.449,77.1285,0.728227,72.8227,62.9601
247.301,46.306,47.3373,,247.301,74.008,67.0479,,247.301,62.5689,0.706022,70.6022,65.1967
249.153,54.941,49.4557,,249.153,76.462,71.9343,,249.153,71.854,0.687512,68.7512,67.2675
251.005,57.759,53.6804,,251.005,78.824,74.4033,,251.005,73.2759,0.721478,72.1478,70.0587
252.856,55.486,54.4441,,252.856,84.096,77.687,,252.856,65.9794,0.700813,70.0813,71.1194
254.681,58.849,55.3534,,254.681,83.277,80.7354,,254.681,70.6666,0.685616,68.5616,70.5994
256.513,62.03,57.3878,,256.513,85.73,82.9864,,256.513,72.3551,0.691533,69.1533,69.8511
258.347,66.12,60.8797,,258.347,87.911,85.0558,,258.347,75.2124,0.715762,71.5762,70.1701
260.181,61.847,62.2519,,260.181,84.546,85.9536,,260.181,73.1519,0.724251,72.4251,70.5421
262.017,57.937,60.5381,,262.017,84.181,85.3776,,262.017,68.8243,0.709063,70.9063,70.5748
263.853,60.937,59.9176,,263.853,88.362,86.106,,263.853,68.9629,0.695859,69.5859,70.6971
265.691,64.118,61.7119,,265.691,92.361,87.7832,,265.691,69.4211,0.703003,70.3003,70.905
267.53,63.754,63.6453,,267.53,91.36,89.4831,,267.53,69.7833,0.711256,71.1256,70.9865
269.369,60.753,62.3853,,269.369,92.995,90.0457,,269.369,65.3293,0.692818,69.2818,70.5785
271.21,63.207,62.3726,,271.21,97.903,92.4478,,271.21,64.5608,0.67468,67.468,69.7774
273.052,63.934,63.7465,,273.052,94.902,94.2616,,273.052,67.3684,0.676272,67.6272,69.2347
274.895,63.569,63.4624,,274.895,88.446,92.3501,,274.895,71.8732,0.687194,68.7194,68.9108
276.739,62.023,63.1887,,276.739,88.082,90.1149,,276.739,70.4151,0.701202,70.1202,68.7741
278.584,56.932,61.0362,,278.584,88.171,88.4909,,278.584,64.57,0.689745,68.9745,68.5427
280.431,60.84,60.2881,,280.431,90.716,89.2624,,280.431,67.0664,0.675403,67.5403,68.4176
282.278,62.748,60.6173,,282.278,89.714,89.8304,,282.278,69.9423,0.674797,67.4797,68.4305
284.126,62.93,61.0133,,284.126,92.441,90.4788,,284.126,68.0759,0.674338,67.4338,68.4201
285.976,62.384,60.8736,,285.976,93.803,91.1303,,285.976,66.5053,0.667984,66.7984,67.9792
287.826,61.383,61.0619,,287.826,92.802,91.8899,,287.826,66.144,0.664511,66.4511,67.3954
289.678,60.837,59.887,,289.678,89.255,90.7646,,289.678,68.1609,0.659806,65.9806,67.0221
291.531,65.654,61.6044,,291.531,92.527,90.6522,,291.531,70.9566,0.679569,67.9569,67.01
293.385,67.472,64.5584,,293.385,90.526,91.3556,,293.385,74.5333,0.706671,70.6671,67.4193
295.239,62.289,64.4094,,295.239,91.07,90.4104,,295.239,68.3968,0.712412,71.2412,68.193
297.095,65.198,63.9541,,297.095,94.887,92.2607,,297.095,68.7112,0.693188,69.3188,68.7359
298.952,63.106,64.1746,,298.952,95.431,93.5602,,298.952,66.1274,0.685917,68.5917,69.2468
300.81,64.56,63.6694,,300.81,93.793,94.3954,,300.81,68.8324,0.674497,67.4497,69.4595
302.669,61.286,63.561,,302.669,88.338,91.817,,302.669,69.3767,0.692257,69.2257,69.4142
304.53,56.013,60.9942,,304.53,89.609,89.7095,,304.53,62.5082,0.679907,67.9907,68.9096
306.391,57.649,58.9329,,306.391,88.062,89.1865,,306.391,65.4641,0.660782,66.0782,68.1823
308.253,64.193,59.9977,,308.253,93.152,90.2314,,308.253,68.9121,0.664931,66.4931,67.6656
310.117,61.465,61.8477,,310.117,91.605,91.4441,,310.117,67.0979,0.676344,67.6344,67.5585
311.981,59.556,60.9381,,311.981,91.422,91.101,,311.981,65.1441,0.668907,66.8907,67.3653
313.847,59.373,59.1147,,313.847,95.33,91.2889,,313.847,62.2815,0.647557,64.7557,66.7041
315.713,59.009,59.1079,,315.713,94.329,93.5318,,315.713,62.5566,0.631955,63.1955,66.1052
317.581,56.008,58.8492,,317.581,98.418,94.6417,,317.581,56.9083,0.621811,62.1811,65.3985
319.45,58.916,58.0931,,319.45,96.326,96.297,,319.45,61.1631,0.60327,60.327,64.1159
321.319,67.552,60.8728,,321.319,90.416,95.3567,,321.319,74.7124,0.638369,63.8369,63.1577
323.19,67.188,64.7134,,323.19,94.142,94.0786,,323.19,71.3688,0.687865,68.7865,63.4446
325.062,62.096,64.3746,,325.062,93.14,93.6586,,325.062,66.6695,0.687333,68.7333,64.3961
326.935,61.732,63.0468,,326.935,97.503,94.264,,326.935,63.3129,0.668833,66.8833,65.2754
328.809,57.367,61.5485,,328.809,101.683,97.2686,,328.809,56.4175,0.632769,63.2769,65.9317
330.685,62.275,60.4377,,330.685,99.227,99.6732,,330.685,62.7601,0.606359,60.6359,65.8859
332.561,63.366,61.168,,332.561,99.771,99.774,,332.561,63.5114,0.613066,61.3066,64.8711
334.438,64.274,62.0284,,334.438,97.679,98.6843,,334.438,65.8012,0.628553,62.8553,63.5768
336.316,66.273,63.7718,,336.316,102.496,99.0986,,336.316,64.6591,0.643519,64.3519,62.7897
338.196,66.091,65.3245,,338.196,102.131,101.62,,338.196,64.712,0.642831,64.2831,62.5643
340.076,63.09,64.9365,,340.076,99.947,101.981,,340.076,63.1235,0.636748,63.6748,62.961
341.958,61.18,63.1507,,341.958,96.491,99.8221,,341.958,63.4049,0.632632,63.2632,63.4416
343.84,59.815,61.9377,,343.84,102.49,99.8795,,343.84,58.3618,0.620124,62.0124,63.5661
345.724,56.633,59.4728,,345.724,103.579,101.973,,345.724,54.6761,0.583222,58.3222,62.8044
347.609,61.819,60.0492,,347.609,98.042,100.992,,347.609,63.0536,0.594596,59.4596,61.7552
349.495,61.08,61.3279,,349.495,106.676,101.908,,349.495,57.2575,0.601795,60.1795,61.0812
351.382,65.745,62.68,,351.382,105.402,104.69,,351.382,62.3755,0.598719,59.8719,60.3601
353.269,63.833,64.975,,353.269,105.292,104.512,,353.269,60.6247,0.621698,62.1698,60.0982
355.158,60.925,63.5609,,355.158,115.346,107.968,,355.158,52.8193,0.588698,58.8698,60.0326
357.048,62.926,62.4,,357.048,110.673,111.077,,357.048,56.8576,0.561773,56.1773,59.7216
358.94,65.9,63.5026,,358.94,111.762,109.872,,358.94,58.9646,0.577971,57.7971,59.1383
360.832,67.896,65.6073,,360.832,113.053,110.748,,360.832,60.0568,0.592404,59.2404,58.948
362.725,72.573,68.1642,,362.725,115.754,112.854,,362.725,62.6959,0.604001,60.4001,58.7782
364.619,71.486,70.6058,,364.619,111.863,113.697,,364.619,63.905,0.620998,62.0998,58.8578
366.515,71.801,70.7274,,366.515,120.36,114.787,,366.515,59.6552,0.61616,61.616,59.7645
368.411,64.359,69.7848,,368.411,120.326,118.882,,368.411,53.4872,0.587011,58.7011,60.3259
370.308,67.643,67.8681,,370.308,118.77,118.855,,370.308,56.9529,0.571014,57.1014,60.168
372.207,70.779,69.1787,,372.207,125.223,119.59,,372.207,56.5224,0.578463,57.8463,59.739
374.107,69.515,69.9242,,374.107,125.543,122.975,,374.107,55.3715,0.568603,56.8603,58.9548
376.007,72.454,70.6135,,376.007,125.651,124.338,,376.007,57.6629,0.567917,56.7917,57.8587
377.909,69.402,70.476,,377.909,131.77,125.91,,377.909,52.669,0.559734,55.9734,57.0621
379.812,72.038,69.9885,,379.812,139.358,130.63,,379.812,51.6928,0.535775,53.5775,56.384
381.716,73.36,71.3101,,381.716,139.065,134.212,,381.716,52.7523,0.531323,53.1323,55.5968
383.62,70.824,72.0539,,383.62,145.735,138.843,,383.62,48.5978,0.518959,51.8959,54.6799
385.526,72.542,71.3759,,385.526,137.409,139.962,,385.526,52.7928,0.509967,50.9967,53.6362
387.433,71.439,72.0429,,387.433,141.168,139.514,,387.433,50.6057,0.516386,51.6386,52.6541
389.341,72.522,72.0191,,389.341,145.868,142.1,,389.341,49.7176,0.506821,50.6821,51.9008
391.25,72.476,72.4042,,391.25,151.691,146.125,,391.25,47.7787,0.495493,49.5493,51.2912
393.161,74.692,73.8678,,393.161,160.884,150.977,,393.161,46.426,0.489265,48.9265,50.593
395.072,74.754,74.6867,,395.072,183.671,161.883,,395.072,40.6999,0.461363,46.1363,49.8254
396.984,78.583,75.7887,,396.984,208.373,180.311,,396.984,37.7127,0.420322,42.0322,48.2739
398.897,91.849,80.2202,,398.897,246.89,204.525,,398.897,37.2024,0.392226,39.2226,46.1475
400.812,101.798,89.3037,,400.812,313.157,242.129,,400.812,32.507,0.368827,36.8827,43.7565
402.727,109.413,96.7382,,402.727,415.887,302.785,,402.727,26.3083,0.319495,31.9495,40.7682
404.644,132.596,108.324,,404.644,560.653,396.039,,404.644,23.6503,0.273518,27.3518,37.0941
406.561,163.154,128.161,,406.561,774.298,531.273,,406.561,21.0712,0.241233,24.1233,33.442
408.48,197.749,155.408,,408.48,1093.481,734.641,,408.48,18.0844,0.211542,21.1542,29.9
410.4,238.874,187.633,,410.4,1550.196,1031.22,,410.4,15.4093,0.181951,18.1951,26.2303
412.32,280.301,225.157,,412.32,2222.732,1462.76,,412.32,12.6107,0.153926,15.3926,22.6754
414.242,320.911,263.671,,414.242,3163.461,2085.57,,414.242,10.1443,0.126426,12.6426,19.5668
416.165,350.817,301.258,,416.165,4451.47,2958.03,,416.165,7.88092,0.101844,10.1844,16.7195
418.089,371.743,332.383,,418.089,6190.243,4157.76,,418.089,6.00531,0.0799429,7.99429,14.0188
420.014,391.393,357.692,,420.014,8451.974,5767.44,,420.014,4.63079,0.0620193,6.20193,11.5243
421.939,424.565,383.933,,421.939,11338.22,7870.72,,421.939,3.74455,0.0487799,4.87799,9.29704
423.866,486.52,419.287,,423.866,14858.071,10548.9,,423.866,3.27445,0.0397471,3.97471,7.40795
425.795,606.928,482.052,,425.795,18999.297,13820.5,,425.795,3.19448,0.0348794,3.48794,5.89999
427.724,805.908,593.65,,427.724,23830.084,17724.6,,427.724,3.38189,0.0334931,3.34931,4.79349
429.654,1106.065,777.873,,429.654,29330.442,22281.3,,429.654,3.77105,0.0349114,3.49114,4.08292
431.585,1465.648,1037.86,,431.585,35524.486,27504.1,,431.585,4.12574,0.0377347,3.77347,3.72202
433.517,1827.975,1355.75,,433.517,42427.542,33418,,433.517,4.30846,0.0405696,4.05696,3.63244
435.451,2059.81,1668.52,,435.451,49887.621,39995.1,,435.451,4.1289,0.0417181,4.17181,3.71204
437.385,2114.029,1895.29,,437.385,57254.674,47073.2,,437.385,3.69233,0.0402627,4.02627,3.84045
439.32,1953.572,1976.83,,439.32,62514.822,53892.5,,439.32,3.12497,0.0366811,3.66811,3.91421
441.257,1641.66,1887.93,,441.257,64000,58913.9,,441.257,2.56509,0.0320456,3.20456,3.8638
443.194,1283.86,1668.16,,443.194,63674.793,61526.8,,443.194,2.01628,0.0271128,2.71128,3.66572
445.133,969.457,1384.44,,445.133,62227.685,62338.3,,445.133,1.55792,0.0222085,2.22085,3.33126
447.072,755.265,1109.01,,447.072,59293.563,61635.3,,447.072,1.27377,0.0179931,1.79931,2.91209
449.013,643.047,891.573,,449.013,53142.307,59010.9,,449.013,1.21005,0.0151086,1.51086,2.47632
450.955,640.021,755.601,,450.955,44477.703,53779.7,,450.955,1.43897,0.0140499,1.40499,2.08823
452.897,776.153,723.2,,452.897,36198.569,46764.1,,452.897,2.14415,0.0154648,1.54648,1.80304
454.841,1098.14,823.614,,454.841,29497.312,39472.2,,454.841,3.72285,0.0208657,2.08657,1.69002
456.786,1644.491,1095.32,,456.786,24370.579,32900.3,,456.786,6.74785,0.033292,3.3292,1.85798
458.732,2408.912,1567.44,,458.732,20454.45,27407.8,,458.732,11.777,0.0571897,5.71897,2.48013
460.679,3293.712,2230.87,,460.679,17336.43,22959.3,,460.679,18.9988,0.0971662,9.71662,3.80756
462.627,4086.407,2995.04,,462.627,14707.613,19335.7,,462.627,27.7843,0.154897,15.4897,6.13351
464.576,4639.471,3718.47,,464.576,12463.222,16334.4,,464.576,37.2253,0.227646,22.7646,9.7039
466.526,4895.526,4277.19,,466.526,10551.892,13810.2,,466.526,46.3948,0.309711,30.9711,14.6312
468.477,4910.88,4611.49,,468.477,9025.241,11703.9,,468.477,54.4127,0.394013,39.4013,20.8291
470.429,4788.583,4742.12,,470.429,7818.333,9984.2,,470.429,61.2481,0.474963,47.4963,28.0054
472.382,4602.535,4721.57,,472.382,6899.26,8608.48,,472.382,66.7106,0.548478,54.8478,35.7146
474.336,4416.51,4612.24,,474.336,6186.437,7525.12,,474.336,71.3902,0.612912,61.2912,43.4709
476.292,4251.025,4465.17,,476.292,5650.679,6682.84,,476.292,75.2303,0.668155,66.8155,50.8602
478.248,4110.16,4316.46,,478.248,5248.95,6036.29,,478.248,78.3044,0.715085,71.5085,57.6002
480.205,4003.957,4180.95,,480.205,4936.14,5542.55,,480.205,81.1151,0.754337,75.4337,63.546
482.164,3946.526,4071.82,,482.164,4730.842,5169.31,,482.164,83.4212,0.787691,78.7691,68.6803
484.123,3950.401,4002.44,,484.123,4621.49,4909.27,,484.123,85.4789,0.815282,81.5282,73.0482
486.083,4063.738,3998.6,,486.083,4648.985,4759.32,,486.083,87.4113,0.840163,84.0163,76.7558
488.045,4319.922,4090.93,,488.045,4831.615,4743.7,,488.045,89.4095,0.862392,86.2392,79.9179
490.007,4692.369,4299.38,,490.007,5132.308,4858.48,,490.007,91.428,0.884923,88.4923,82.6829
491.971,5184.735,4624.17,,491.971,5580.085,5109.18,,491.971,92.915,0.90507,90.507,85.1502
493.936,5774.268,5063.17,,493.936,6134.021,5491.74,,493.936,94.1351,0.921961,92.1961,87.3741
495.901,6469.024,5605.55,,495.901,6805.139,5993.71,,495.901,95.0609,0.935239,93.5239,89.3674
497.868,7283.042,6260.74,,497.868,7560.527,6605.84,,497.868,96.3298,0.947759,94.7759,91.1544
499.836,8169.88,7016.35,,499.836,8398.979,7313.26,,499.836,97.2723,0.959401,95.9401,92.745
501.804,9129.369,7861.39,,501.804,9288.26,8101.74,,501.804,98.2893,0.970333,97.0333,94.1328
503.774,10113.761,8773.56,,503.774,10243.017,8963.53,,503.774,98.7381,0.978806,97.8806,95.3427
505.745,11109.728,9724.39,,505.745,11150.964,9863.56,,505.745,99.6302,0.985891,98.5891,96.401
507.717,12131.881,10704.8,,507.717,12055.608,10765.2,,507.717,100.633,0.994391,99.4391,97.3718
509.69,13108.278,11699,,509.69,12973.535,11674.3,,509.69,101.039,1.00212,100.212,98.265
511.664,14069.982,12681.7,,511.664,13871.801,12583.8,,511.664,101.429,1.00778,100.778,99.0625
513.639,14995.098,13644,,513.639,14671.604,13461.2,,513.639,102.205,1.01358,101.358,99.7729
515.615,15826.792,14566.8,,515.615,15397.06,14281.8,,515.615,102.791,1.01996,101.996,100.462
517.592,16545.139,15411.3,,517.592,16069.592,15040.5,,517.592,102.959,1.02465,102.465,101.105
519.57,17204.232,16176.5,,519.57,16637.44,15729,,519.57,103.407,1.02845,102.845,101.663
521.549,17794.71,16866.2,,521.549,17143.404,16334.7,,521.549,103.799,1.03254,103.254,102.168
523.529,18302.629,17484.6,,523.529,17567.495,16868.9,,523.529,104.185,1.0365,103.65,102.647
525.51,18731.973,18022,,525.51,17912.017,17326.5,,525.51,104.578,1.04014,104.014,103.077
527.493,19091.208,18489.5,,527.493,18129.767,17691.4,,527.493,105.303,1.04512,104.512,103.481
529.476,19298.329,18861.8,,529.476,18298.241,17965.2,,529.476,105.465,1.04991,104.991,103.905
531.46,19400.804,19115.7,,531.46,18376.976,18162.2,,531.46,105.571,1.0525,105.25,104.314
533.446,19486.767,19286.6,,533.446,18394.461,18277.2,,533.446,105.938,1.05523,105.523,104.694
535.432,19517.06,19400.3,,535.432,18380.008,18335.7,,535.432,106.186,1.05806,105.806,105.058
537.419,19510.666,19459.5,,537.419,18314.218,18342.9,,537.419,106.533,1.06088,106.088,105.397
539.408,19436.233,19468.6,,539.408,18241.306,18310.1,,539.408,106.551,1.06327,106.327,105.687
541.397,19403.252,19443.2,,541.397,18116.433,18244.7,,541.397,107.103,1.06569,106.569,105.947
543.388,19330.041,19406.7,,543.388,18010.748,18152.8,,543.388,107.325,1.06908,106.908,106.222
545.379,19235.893,19343.1,,545.379,17860.086,18041.7,,545.379,107.703,1.07214,107.214,106.501
547.372,19102.755,19251.8,,547.372,17739.367,17915.4,,547.372,107.686,1.07459,107.459,106.78
549.365,18956.693,19137.8,,549.365,17602.812,17792,,549.365,107.691,1.07564,107.564,107.032
551.36,18812.54,19007.4,,551.36,17418.725,17651.3,,551.36,108.002,1.07683,107.683,107.265
553.356,18658.765,18868.2,,553.356,17167.843,17468.1,,553.356,108.684,1.08015,108.015,107.489
555.352,18440.679,18704.1,,555.352,16964.686,17256.7,,555.352,108.7,1.08387,108.387,107.727
557.35,18205.996,18505.5,,557.35,16744.941,17055.5,,557.35,108.725,1.08502,108.502,107.944
559.349,17970.418,18287.1,,559.349,16493.069,16829.6,,559.349,108.957,1.0866,108.66,108.153
561.348,17743.817,18062.7,,561.348,16250.673,16589.7,,561.348,109.188,1.08879,108.879,108.383
563.349,17500.715,17835.3,,563.349,15993.017,16348.1,,563.349,109.427,1.09097,109.097,108.616
565.351,17185.882,17579.5,,565.351,15706.557,16090.7,,565.351,109.419,1.09252,109.252,108.809
567.354,16899.093,17298,,567.354,15408.025,15816.3,,567.354,109.677,1.09368,109.368,108.976
569.358,16596.14,17012.9,,569.358,15122.221,15533,,569.358,109.747,1.09527,109.527,109.151
571.363,16280.441,16713.8,,571.363,14803.019,15236.5,,571.363,109.981,1.09696,109.696,109.319
573.368,15951.297,16407.2,,573.368,14476.131,14927.8,,573.368,110.19,1.0991,109.91,109.485
575.375,15624.255,16088,,575.375,14137.525,14603.3,,575.375,110.516,1.10167,110.167,109.659
577.383,15311.628,15766.6,,577.383,13856.848,14288,,577.383,110.499,1.10348,110.348,109.85
579.392,14998.839,15452.6,,579.392,13553.915,13989.5,,579.392,110.661,1.10459,110.459,110.035
581.402,14623.673,15122.7,,581.402,13220.763,13677.3,,581.402,110.611,1.10568,110.568,110.213
583.413,14266.394,14769,,583.413,12883.828,13351.8,,583.413,110.731,1.10615,110.615,110.365
585.425,13947.797,14425.8,,585.425,12565.841,13024.3,,585.425,110.998,1.1076,110.76,110.495
587.439,13618.752,14093.8,,587.439,12218.756,12701.1,,587.439,111.458,1.10965,110.965,110.617
589.453,13250.548,13751.8,,589.453,11860.998,12358.4,,589.453,111.715,1.11275,111.275,110.769
591.468,12871.266,13390,,591.468,11532.923,12014.7,,591.468,111.605,1.11447,111.447,110.941
593.484,12509.137,13024.6,,593.484,11205.222,11680.4,,593.484,111.637,1.11508,111.508,111.113
595.501,12141.892,12661.9,,595.501,10855.083,11343.6,,595.501,111.854,1.11621,111.621,111.288
597.519,11743.79,12294.3,,597.519,10499.447,10998.9,,597.519,111.852,1.11778,111.778,111.457
599.539,11361.93,11911.6,,599.539,10162.072,10650.4,,599.539,111.807,1.11842,111.842,111.594
601.559,10979.574,11531.6,,601.559,9798.777,10300.6,,601.559,112.05,1.11951,111.951,111.694
603.58,10591.857,11148.1,,603.58,9459.679,9949.95,,603.58,111.968,1.12041,112.041,111.798
605.602,10208.921,10762.7,,605.602,9106.042,9603.99,,605.602,112.112,1.12064,112.064,111.891
607.626,9837.727,10378,,607.626,8752.966,9252.65,,607.626,112.393,1.12163,112.163,111.974
609.65,9476.518,10002,,609.65,8417.211,8907.23,,609.65,112.585,1.12291,112.291,112.057
611.675,9089.586,9629.98,,611.675,8081.183,8566.92,,611.675,112.478,1.12409,112.409,112.155
613.702,8706.699,9248.8,,613.702,7750.473,8230.89,,613.702,112.338,1.12367,112.367,112.229
615.729,8370.576,8880.81,,615.729,7428.717,7899.72,,615.729,112.679,1.12419,112.419,112.296
617.757,8014.972,8521.2,,617.757,7107.102,7574.24,,617.757,112.774,1.12502,112.502,112.368
619.787,7671.276,8168.77,,619.787,6777.411,7248.79,,619.787,113.189,1.12692,112.692,112.447
621.817,7313.004,7816.79,,621.817,6479.382,6926.44,,621.817,112.866,1.12854,112.854,112.537
623.849,7002.826,7475.46,,623.849,6197.39,6621.21,,623.849,112.996,1.12902,112.902,112.628
625.881,6678.62,7146.51,,625.881,5898.7,6323.7,,625.881,113.222,1.13011,113.011,112.74
627.915,6363.543,6822.57,,627.915,5597.269,6026.39,,627.915,113.69,1.13212,113.212,112.87
629.949,6055.619,6505.67,,629.949,5317.543,5729.63,,629.949,113.88,1.13544,113.544,113.035
631.985,5789.031,6201.36,,631.985,5078.235,5452.72,,631.985,113.997,1.1373,113.73,113.203
634.021,5523.336,5918.77,,634.021,4845.814,5199.17,,634.021,113.982,1.13841,113.841,113.384
636.059,5257.34,5644.97,,636.059,4614.617,4957.05,,636.059,113.928,1.13878,113.878,113.559
638.098,5007.23,5380.68,,638.098,4396.936,4722.31,,638.098,113.88,1.13942,113.942,113.719
640.137,4756.579,5119.71,,640.137,4190.298,4500.78,,640.137,113.514,1.13751,113.751,113.808
642.178,4510.868,4866.46,,642.178,3977.679,4285.8,,642.178,113.405,1.13549,113.549,113.803
644.219,4284.085,4623.46,,644.219,3776.175,4074.28,,644.219,113.45,1.13479,113.479,113.749
646.262,4060.944,4389.6,,646.262,3579.935,3869.46,,646.262,113.436,1.13442,113.442,113.674
648.306,3865.064,4167.82,,648.306,3390.26,3668.67,,648.306,114.005,1.13606,113.606,113.604
650.35,3651.489,3955.32,,650.35,3226.089,3481.54,,650.35,113.186,1.13608,113.608,113.56
652.396,3448.862,3743.52,,652.396,3054.629,3304.68,,652.396,112.906,1.13279,113.279,113.505
654.443,3264.848,3541.76,,654.443,2884.204,3130.37,,654.443,113.198,1.13142,113.142,113.438
656.49,3090.843,3350.7,,656.49,2731.414,2962.54,,656.49,113.159,1.13102,113.102,113.374
658.539,2926.51,3173.29,,658.539,2580.731,2804.5,,658.539,113.398,1.1315,113.15,113.308
660.589,2753.9,3001.22,,660.589,2427.603,2648.13,,660.589,113.441,1.13334,113.334,113.243
662.64,2597.412,2831.68,,662.64,2288.091,2497.08,,662.64,113.519,1.134,113.4,113.23
664.691,2451.669,2672.51,,664.691,2164.156,2356.33,,664.691,113.285,1.13418,113.418,113.275
666.744,2314.244,2520.6,,666.744,2045.696,2226.29,,666.744,113.127,1.1322,113.22,113.302
668.798,2182.75,2379.85,,668.798,1925.154,2100.21,,668.798,113.381,1.13315,113.315,113.33
670.853,2049.426,2243.07,,670.853,1815.214,1979.64,,670.853,112.903,1.13307,113.307,113.34
672.909,1927.51,2110.4,,672.909,1715.56,1867.31,,672.909,112.355,1.13018,113.018,113.287
674.965,1818.216,1985.29,,674.965,1611.947,1762.64,,674.965,112.796,1.12631,112.631,113.15
677.023,1709.835,1871.41,,677.023,1524.155,1660.97,,677.023,112.182,1.1267,112.67,113.024
679.082,1603.326,1760.39,,679.082,1432.954,1566.48,,679.082,111.89,1.12378,112.378,112.877
681.142,1513.107,1655.98,,681.142,1354.302,1476.52,,681.142,111.726,1.12155,112.155,112.669
683.203,1430.684,1561.34,,683.203,1270.438,1392.78,,683.203,112.613,1.12103,112.103,112.46
685.265,1335.206,1468.84,,685.265,1184.315,1306.68,,685.265,112.741,1.1241,112.41,112.371
687.327,1250.407,1376.34,,687.327,1118.864,1225.41,,687.327,111.757,1.12316,112.316,112.321
689.391,1176.802,1291.11,,689.391,1065.445,1157.43,,689.391,110.452,1.1155,111.55,112.182
691.456,1111.842,1214.92,,691.456,1002.409,1093.7,,691.456,110.917,1.11084,111.084,111.973
693.522,1043.698,1144.89,,693.522,947.984,1031.78,,693.522,110.097,1.10963,110.963,111.77
695.589,983.912,1076.32,,695.589,895.937,974.024,,695.589,109.819,1.10502,110.502,111.459
697.657,919.062,1011.91,,697.657,844.05,920.439,,697.657,108.887,1.09938,109.938,111.017
699.726,861.984,947.882,,699.726,793.442,867.434,,699.726,108.639,1.09274,109.274,110.527
701.796,814.49,890.818,,701.796,752.07,817.616,,701.796,108.3,1.08953,108.953,110.102
703.867,769.644,839.064,,703.867,717.422,774.53,,703.867,107.279,1.08332,108.332,109.625
705.939,721.005,790.343,,705.939,679.315,735.617,,705.939,106.137,1.07439,107.439,109.046
708.012,691.472,746.224,,708.012,636.773,694.687,,708.012,108.59,1.07419,107.419,108.492
710.085,645.434,706.128,,710.085,606.364,655.382,,710.085,106.443,1.07743,107.743,108.126
712.16,604.504,663.705,,712.16,566.369,620.068,,712.16,106.733,1.07038,107.038,107.763
714.236,564.971,623.297,,714.236,532.352,582.695,,714.236,106.127,1.06968,106.968,107.435
716.313,523.143,582.282,,716.313,505.864,550.157,,716.313,103.416,1.05839,105.839,107.119
718.391,493.64,543.277,,718.391,472.365,517.728,,718.391,104.504,1.04935,104.935,106.705
720.47,469.101,512.013,,720.47,447.827,487.368,,720.47,104.75,1.05057,105.057,106.199
722.55,437.894,482.164,,722.55,433.743,462.584,,722.55,100.957,1.04233,104.233,105.654
724.631,414.15,453.617,,724.631,409.02,440.922,,724.631,101.254,1.02879,102.879,104.929
726.713,392.659,428.624,,726.713,388.541,418.692,,726.713,101.06,1.02372,102.372,104.144
728.796,374.294,405.891,,728.796,371.186,398.504,,728.796,100.837,1.01854,101.854,103.507
730.88,354.662,384.167,,730.88,349.794,379.032,,730.88,101.392,1.01355,101.355,102.846
732.965,337.925,364.172,,732.965,336.604,360.43,,732.965,100.392,1.01038,101.038,102.161
735.051,319.097,344.905,,735.051,326.387,344.836,,735.051,97.7665,1.0002,100.02,101.551
737.138,309.989,329.814,,737.138,309.643,331.615,,737.138,100.112,0.994568,99.4568,100.954
739.226,294.661,315.18,,739.226,297.074,317.355,,739.226,99.1877,0.993144,99.3144,100.422
741.315,284.741,302.196,,741.315,293.86,307.387,,741.315,96.8968,0.983111,98.3111,99.872
743.405,268.11,288.106,,743.405,277.141,297.104,,743.405,96.7414,0.969716,96.9716,99.1201
745.496,256.801,275,,745.496,267.722,284.507,,745.496,95.9208,0.966585,96.6585,98.3947
747.588,244.768,262.651,,747.588,263.788,275.873,,747.588,92.7897,0.952072,95.2072,97.6667
749.681,232.644,250.747,,749.681,251.092,266.248,,749.681,92.6529,0.941779,94.1779,96.7303
751.775,220.714,237.596,,751.775,245.16,256.03,,751.775,90.0286,0.928003,92.8003,95.6283
753.87,214.77,227.004,,753.87,247.608,251.097,,753.87,86.7379,0.904046,90.4046,94.3805
755.966,205.537,217.853,,755.966,236.574,246.921,,755.966,86.8806,0.882279,88.2279,92.8376
758.063,193.223,209.049,,758.063,221.635,236.698,,758.063,87.1807,0.883189,88.3189,91.324
760.161,170.735,194.432,,760.161,205.981,223.779,,760.161,82.8887,0.868855,86.8855,89.934
762.26,165.928,179.587,,762.26,201.861,212.771,,762.26,82.1991,0.844037,84.4037,88.321
764.36,167.769,173.845,,764.36,202.38,207.356,,764.36,82.898,0.838391,83.8391,86.8249
766.461,169.442,171.206,,766.461,204.113,204.812,,766.461,83.0138,0.835921,83.5921,85.7604
768.562,167.485,170.609,,768.562,201.143,203.635,,768.562,83.2666,0.837815,83.7815,84.9162
770.665,159.267,167.28,,770.665,193.588,199.951,,770.665,82.2711,0.836601,83.6601,84.1314
772.769,153.697,161.221,,772.769,193.397,196.739,,772.769,79.4723,0.819468,81.9468,83.5221
774.874,148.689,155.712,,774.874,185.475,193.222,,774.874,80.1666,0.805872,80.5872,82.9373
776.98,145.674,151.696,,776.98,189.418,190.42,,776.98,76.9061,0.796636,79.6636,82.2492
779.087,141.676,147.282,,779.087,181.983,187.565,,779.087,77.8512,0.785234,78.5234,81.3292
781.195,140.508,143.983,,781.195,180.753,184.49,,781.195,77.7348,0.780438,78.0438,80.2824
783.304,133.412,140.425,,783.304,173.935,181.758,,783.304,76.7022,0.772597,77.2597,79.2252
785.414,125.084,134.296,,785.414,167.726,177.097,,785.414,74.5764,0.75832,75.832,78.2807
787.525,125.425,129.395,,787.525,158.788,170.284,,787.525,78.989,0.759879,75.9879,77.3943
789.637,126.983,127.808,,789.637,156.031,163.472,,789.637,81.3832,0.781834,78.1834,77.1107
791.749,122.387,126.446,,791.749,153.463,159.225,,791.749,79.7502,0.794133,79.4133,77.2872
793.863,117.375,123.304,,793.863,150.563,156.128,,793.863,77.9574,0.789765,78.9765,77.5799
795.978,112.561,119.309,,795.978,150.986,153.586,,795.978,74.5506,0.776821,77.6821,77.843
798.094,110.585,115.037,,798.094,150.643,152.262,,798.094,73.4087,0.755521,75.5521,77.9258
800.211,107.477,111.836,,800.211,146.816,150.657,,800.211,73.2052,0.742321,74.2321,77.4735
802.329,102.394,108.667,,802.329,147.662,149.629,,802.329,69.3435,0.726243,72.6243,76.373
804.448,106.167,105.714,,804.448,146.668,148.293,,804.448,72.3859,0.712873,71.2873,74.9104
806.567,111.734,107.273,,806.567,155.107,149.196,,806.567,72.0367,0.719009,71.9009,73.6212
808.688,107.839,108.334,,808.688,147.652,150.275,,808.688,73.0359,0.720905,72.0905,72.7381
810.81,104.882,107.293,,810.81,146.27,148.305,,810.81,71.7044,0.723458,72.3458,72.2531
812.933,95.502,103.819,,812.933,144.419,147.154,,812.933,66.1284,0.705515,70.5515,71.804
815.057,98.975,100.501,,815.057,153.045,147.675,,815.057,64.6705,0.68056,68.056,71.1892
817.181,104.541,101.038,,817.181,155.736,151.328,,817.181,67.1271,0.667674,66.7674,70.334
819.307,101.413,101.751,,819.307,151.672,152.245,,819.307,66.8634,0.668338,66.8338,69.3682
821.434,97.193,100.301,,821.434,160.59,153.76,,821.434,60.5224,0.652318,65.2318,68.1818
823.562,94.206,98.4042,,823.562,163.951,158.246,,823.562,57.4599,0.621845,62.1845,66.538
825.69,94.625,96.418,,825.69,174.003,163.075,,825.69,54.3812,0.591249,59.1249,64.7656
827.82,93.192,95.1292,,827.82,189.855,173.097,,827.82,49.0859,0.549572,54.9572,62.6721
829.951,100.005,95.6377,,829.951,205.274,186.255,,829.951,48.7178,0.513478,51.3478,59.9057
832.082,102.336,99.5093,,832.082,215.495,198.43,,832.082,47.4888,0.501484,50.1484,56.8762
834.215,87.801,96.6247,,834.215,216.898,206.786,,834.215,40.4803,0.467268,46.7268,53.828
836.349,81.766,90.3702,,836.349,219.103,211.731,,836.349,37.3185,0.426817,42.6817,50.6011
838.483,85.95,86.4906,,838.483,241.528,220.303,,838.483,35.5859,0.392598,39.2598,47.3389
840.619,94.322,88.1754,,840.619,278.337,239.836,,840.619,33.8877,0.367648,36.7648,44.3734
842.755,96.971,91.51,,842.755,333.384,272.42,,842.755,29.0869,0.335916,33.5916,41.3009
844.893,101.721,95.1953,,844.893,400.011,320.492,,844.893,25.4296,0.297029,29.7029,37.8913
847.032,108.617,99.8388,,847.032,474.535,380.132,,847.032,22.8891,0.262642,26.2642,34.5309
849.171,108.256,104.764,,849.171,556.983,450.155,,849.171,19.4361,0.23273,23.273,31.308
851.312,106.772,105.216,,851.312,630.508,525.136,,851.312,16.9343,0.20036,20.036,28.043
853.453,108.321,106.269,,853.453,703.737,599.605,,853.453,15.3923,0.177232,17.7232,24.7874
855.596,106.252,106.933,,855.596,769.709,671.021,,855.596,13.8042,0.159358,15.9358,21.8508
857.739,110.945,107.685,,857.739,829.831,738.184,,857.739,13.3696,0.145879,14.5879,19.3427
859.884,115.287,110.903,,859.884,871.417,796.955,,859.884,13.2298,0.139159,13.9159,17.274
862.029,112.907,111.198,,862.029,905.793,845.071,,862.029,12.465,0.131584,13.1584,15.6702
864.175,112.659,111.885,,864.175,932.101,884.121,,864.175,12.0866,0.12655,12.655,14.4979
866.323,106.455,110.288,,866.323,956.712,915.345,,866.323,11.1272,0.120488,12.0488,13.6082
868.471,104.203,108.125,,868.471,993.127,945.857,,868.471,10.4924,0.114314,11.4314,12.9099
870.621,107.858,106.964,,870.621,1031.509,979.757,,870.621,10.4563,0.109174,10.9174,12.3017
872.771,109.515,108.848,,872.771,1082.553,1018.45,,872.771,10.1164,0.106876,10.6876,11.762
874.922,103.991,107.4,,874.922,1157.861,1070.42,,874.922,8.9813,0.100335,10.0335,11.2547
877.075,108.143,106.192,,877.075,1234.603,1135.19,,877.075,8.75933,0.0935454,9.35454,10.7064
879.228,97.448,105.181,,879.228,1331.316,1211.7,,879.228,7.31967,0.0868041,8.68041,10.166
881.382,90.936,98.7487,,881.382,1420.587,1298.52,,881.382,6.4013,0.0760473,7.60473,9.54966
883.537,90.863,95.0701,,883.537,1504.383,1384.85,,883.537,6.03988,0.06865,6.865,8.84001
885.694,88.386,92.7886,,885.694,1575.576,1466.43,,885.694,5.60976,0.0632752,6.32752,8.08723
887.851,87.274,89.9941,,887.851,1624.133,1535.65,,887.851,5.37357,0.0586034,5.86034,7.3811
890.009,81.416,86.4123,,890.009,1658.197,1592.38,,890.009,4.90991,0.0542662,5.42662,6.70436
892.168,79.423,82.9592,,892.168,1654.916,1627.2,,892.168,4.79922,0.0509829,5.09829,6.12821
894.328,77.946,80.9874,,894.328,1623.094,1635.81,,894.328,4.80231,0.0495091,4.95091,5.69803
896.489,75.836,78.5143,,896.489,1559.063,1613.7,,896.489,4.8642,0.0486549,4.86549,5.36892
898.651,73.68,76.1683,,898.651,1463.155,1561.85,,898.651,5.03569,0.0487679,4.87679,5.13262
900.815,76.699,75.0594,,900.815,1371.84,1486.62,,900.815,5.59096,0.0504901,5.04901,5.00297
902.979,81.406,76.4418,,902.979,1278.203,1404.37,,902.979,6.36878,0.0544314,5.44314,5.01196
905.144,86.165,79.782,,905.144,1176.028,1312.13,,905.144,7.32678,0.0608033,6.08033,5.17505
907.31,87.631,83.5579,,907.31,1086.914,1218.25,,907.31,8.06237,0.0685885,6.85885,5.50212
909.477,95.287,87.1476,,909.477,995.007,1125.59,,909.477,9.57652,0.0774242,7.74242,5.99826
911.644,101.12,93.6634,,911.644,906.569,1034.2,,911.644,11.1541,0.0905663,9.05663,6.70342
913.813,107.281,99.2944,,913.813,837.096,949.149,,913.813,12.8159,0.104614,10.4614,7.61994
915.983,124.269,107.297,,915.983,779.347,876.084,,915.983,15.9453,0.122473,12.2473,8.7532
918.154,143.166,122.011,,918.154,720.052,810.915,,918.154,19.8827,0.150461,15.0461,10.2228
920.326,157.062,137.261,,920.326,664.393,749.018,,920.326,23.6399,0.183255,18.3255,12.1435
922.499,172.049,151.03,,922.499,626.552,695.278,,922.499,27.4597,0.217222,21.7222,14.4997
924.673,193.4,167.23,,924.673,585.166,648.683,,924.673,33.0505,0.257799,25.7799,17.3253
926.847,211.841,185.818,,926.847,544.415,604.98,,926.847,38.9117,0.307147,30.7147,20.7495
929.023,218.646,201.073,,929.023,503.118,561.581,,929.023,43.4582,0.358048,35.8048,24.72
931.2,224.996,211.646,,931.2,461.003,519.111,,931.2,48.8058,0.407708,40.7708,29.0485
933.377,231.528,221.192,,933.377,423.069,477.983,,933.377,54.7258,0.46276,46.276,33.7541
935.556,232.877,227.549,,935.556,394.863,441.516,,935.556,58.9767,0.51538,51.538,38.7825
937.736,230.227,229.682,,937.736,366.565,410.534,,937.736,62.8066,0.559471,55.9471,43.8574
939.916,225.394,228.181,,939.916,346.448,382.393,,939.916,65.0585,0.596719,59.6719,48.7209
942.098,223.016,225.725,,942.098,328.331,358.575,,942.098,67.9241,0.629506,62.9506,53.2885
944.28,217.728,222.634,,944.28,309.213,337.735,,944.28,70.4136,0.659199,65.9199,57.4644
946.464,215.44,219.16,,946.464,292.368,318.275,,946.464,73.688,0.688586,68.8586,61.1681
948.648,209.425,216.77,,948.648,277.341,301.738,,948.648,75.5117,0.718405,71.8405,64.5059
950.834,200.318,210.862,,950.834,265.768,285.869,,950.834,75.3733,0.737617,73.7617,67.4847
953.02,196.757,203.578,,953.02,255.012,272.17,,953.02,77.156,0.747979,74.7979,70.035
955.207,192.922,199.075,,955.207,249.711,262,,955.207,77.2581,0.75983,75.983,72.1999
957.396,190.906,196.061,,957.396,236.5,252.082,,957.396,80.7214,0.777768,77.7768,74.082
959.585,194.617,194.954,,959.585,236.106,242.885,,959.585,82.4278,0.802658,80.2658,75.8207
961.775,191.509,194.394,,961.775,229.44,237.911,,961.775,83.468,0.817086,81.7086,77.3951
963.966,193.31,191.89,,963.966,221.773,231.494,,963.966,87.1657,0.828919,82.8919,78.9507
966.159,189.838,191.147,,966.159,219.105,225.236,,966.159,86.6425,0.848655,84.8655,80.6478
968.352,192.456,190.823,,968.352,220.619,222.053,,968.352,87.2346,0.85936,85.936,82.375
970.546,191.256,191.383,,970.546,218.496,220.446,,970.546,87.533,0.86816,86.816,83.8564
972.741,193.147,191.72,,972.741,219.555,220.312,,972.741,87.972,0.870223,87.0223,85.0389
974.937,191.947,191.209,,974.937,218.158,219.266,,974.937,87.9853,0.872041,87.2041,85.9966
977.134,199.746,193.378,,977.134,219.124,219.024,,977.134,91.1566,0.882909,88.2909,86.7614
979.332,202.908,197.414,,979.332,221.817,219.666,,979.332,91.4754,0.898697,89.8697,87.5229
981.531,207.071,201.412,,981.531,227.964,223.572,,981.531,90.835,0.900881,90.0881,88.2375
983.731,211.142,205.661,,983.731,233.383,227.857,,983.731,90.4702,0.90259,90.259,88.8805
985.932,218.849,210.748,,985.932,240.438,232.49,,985.932,91.021,0.906482,90.6482,89.5315
988.134,224.464,215.648,,988.134,249.583,238.987,,988.134,89.9356,0.902339,90.2339,90.0731
990.336,237.352,222.172,,990.336,255.455,246.471,,990.336,92.9134,0.90141,90.141,90.2691
992.54,246.513,231.978,,992.54,261.962,253.353,,992.54,94.1026,0.915632,91.5632,90.5075
994.745,259.946,242.071,,994.745,274.288,260.722,,994.745,94.7712,0.928466,92.8466,90.9586
996.951,269.106,253.95,,996.951,286.612,270.187,,996.951,93.8921,0.939905,93.9905,91.5851
999.157,272.901,262.641,,999.157,293.481,280.193,,999.157,92.9876,0.937357,93.7357,92.2139
1001.365,277.151,269.148,,1001.365,301.168,289.222,,1001.365,92.0254,0.930593,93.0593,92.8158
1003.573,295.492,277.82,,1003.573,303.763,296.508,,1003.573,97.2772,0.936974,93.6974,93.2837
1005.783,307.014,290.404,,1005.783,310.267,301.218,,1005.783,98.9515,0.964097,96.4097,93.9148
1007.993,331.353,303.949,,1007.993,329.769,311.349,,1007.993,100.48,0.976231,97.6231,94.6384
1010.205,356.783,324.78,,1010.205,350.362,326.477,,1010.205,101.833,0.994803,99.4803,95.5902
1012.417,377.668,346.54,,1012.417,374.227,345.141,,1012.417,100.919,1.00405,100.405,96.8853
1014.631,404.824,369.066,,1014.631,403,368.867,,1014.631,100.453,1.00054,100.054,98.2383
1016.845,442.162,397.873,,1016.845,427.136,393.454,,1016.845,103.518,1.01123,101.123,99.3391
1019.06,474.318,429.251,,1019.06,460.817,418.868,,1019.06,102.93,1.02479,102.479,100.344
1021.277,507.473,460.621,,1021.277,488.77,448.532,,1021.277,103.827,1.02695,102.695,101.128
1023.494,535.9,492.34,,1023.494,508.176,474.235,,1023.494,105.456,1.03818,103.818,101.77
1025.712,561.691,521.991,,1025.712,529.673,497.215,,1025.712,106.045,1.04983,104.983,102.587
1027.931,577.687,546.19,,1027.931,553.986,519.436,,1027.931,104.278,1.0515,105.15,103.505
1030.151,588.756,564.793,,1030.151,563.39,539.993,,1030.151,104.502,1.04593,104.593,104.04
1032.372,603.188,580.652,,1032.372,575.884,555.399,,1032.372,104.741,1.04547,104.547,104.427
1034.594,613.619,594.177,,1034.594,581.558,567.714,,1034.594,105.513,1.04661,104.661,104.712
1036.817,621.05,606.582,,1036.817,588.232,576.536,,1036.817,105.579,1.05211,105.211,104.852
1039.041,616.936,613.541,,1039.041,588.632,583.337,,1039.041,104.808,1.05178,105.178,104.862
1041.266,629.639,619.151,,1041.266,590.031,586.847,,1041.266,106.713,1.05505,105.505,104.95
1043.492,631.432,625.18,,1043.492,586.793,588.034,,1043.492,107.607,1.06317,106.317,105.232
1045.718,632.861,628.09,,1045.718,596.644,589.947,,1045.718,106.07,1.06465,106.465,105.592
1047.946,635.836,630.588,,1047.946,593.313,592.824,,1047.946,107.167,1.0637,106.37,105.857
1050.175,636.082,633.165,,1050.175,601.617,594.302,,1050.175,105.729,1.06539,106.539,106.099
1052.405,631.51,633.051,,1052.405,602.011,599.239,,1052.405,104.9,1.05642,105.642,106.225
1054.635,630.029,632.022,,1054.635,596.403,597.902,,1054.635,105.638,1.05707,105.707,106.186
1056.867,628.092,629.17,,1056.867,592.068,595.968,,1056.867,106.084,1.05571,105.571,106.029
1059.099,624.7,627.614,,1059.099,580.549,590.142,,1059.099,107.605,1.0635,106.35,105.977
1061.333,611.581,621.793,,1061.333,581.393,583.967,,1061.333,105.192,1.06477,106.477,105.982
1063.567,609.552,616.392,,1063.567,572.872,579.42,,1063.567,106.403,1.06381,106.381,106.013
1065.802,602.704,611.669,,1065.802,567.258,573.583,,1065.802,106.249,1.0664,106.64,106.19
1068.039,600.674,606.893,,1068.039,565.462,569.197,,1068.039,106.227,1.06623,106.623,106.367
1070.276,596.916,603.115,,1070.276,558.937,565.166,,1070.276,106.795,1.06715,106.715,106.518
1072.514,592.066,599.562,,1072.514,559.139,561.587,,1072.514,105.889,1.06762,106.762,106.558
1074.753,577.944,591.993,,1074.753,550.884,558.469,,1074.753,104.912,1.06003,106.003,106.539
1076.993,572.82,582.915,,1076.993,535.083,550.983,,1076.993,107.053,1.05795,105.795,106.403
1079.234,575.605,579.5,,1079.234,534.007,542.727,,1079.234,107.79,1.06776,106.776,106.38
1081.476,565.844,575.523,,1081.476,529.385,537.937,,1081.476,106.887,1.06987,106.987,106.446
1083.719,560.537,568.817,,1083.719,527.215,532.68,,1083.719,106.32,1.06784,106.784,106.47
1085.963,551.775,562.15,,1085.963,520.772,529.228,,1085.963,105.953,1.06221,106.221,106.469
1088.208,544.012,554.759,,1088.208,513.782,522.837,,1088.208,105.884,1.06105,106.105,106.539
1090.454,544.613,549.235,,1090.454,508.245,517.41,,1090.454,107.156,1.06151,106.151,106.517
1092.772,542.212,547.345,,1092.772,503.615,512.319,,1092.772,107.664,1.06837,106.837,106.462
1094.985,537.538,542.942,,1094.985,503.075,508.097,,1094.985,106.85,1.06858,106.858,106.466
1097.197,532.682,539.751,,1097.197,501.351,505.686,,1097.197,106.249,1.06736,106.736,106.505
1099.409,525.461,534.815,,1099.409,492.535,500.414,,1099.409,106.685,1.06875,106.875,106.616
1101.622,519.876,528.735,,1101.622,486.626,494.006,,1101.622,106.833,1.0703,107.03,106.774
1103.834,501.836,519.612,,1103.834,478.08,487.981,,1103.834,104.969,1.06482,106.482,106.821
1106.047,494.795,508.13,,1106.047,472.804,481.235,,1106.047,104.651,1.05589,105.589,106.595
1108.259,494.571,501.267,,1108.259,469.89,475.543,,1108.259,105.253,1.05409,105.409,106.322
1110.472,488.074,496.249,,1110.472,464.157,470.658,,1110.472,105.153,1.05437,105.437,106.064
1112.684,482.486,490.732,,1112.684,458.24,466.471,,1112.684,105.291,1.05201,105.201,105.759
1114.897,473.442,485.14,,1114.897,439.867,458.028,,1114.897,107.633,1.05919,105.919,105.527
1117.109,451.67,473.286,,1117.109,433.31,445.914,,1117.109,104.237,1.06138,106.138,105.571
1119.321,446.988,459.505,,1119.321,426.297,436.608,,1119.321,104.854,1.05244,105.244,105.565
1121.534,451.85,454.369,,1121.534,422.645,429.973,,1121.534,106.91,1.05674,105.674,105.584
1123.746,437.167,449.157,,1123.746,415.719,425.571,,1123.746,105.159,1.05542,105.542,105.651
1125.959,425.937,439.605,,1125.959,403.973,416.838,,1125.959,105.437,1.05462,105.462,105.66
1128.171,420.798,431.495,,1128.171,398.589,409.039,,1128.171,105.572,1.0549,105.49,105.523
1130.384,411.93,423.854,,1130.384,395.84,403.913,,1130.384,104.065,1.04937,104.937,105.434
1132.596,398.88,413.948,,1132.596,378.543,395.556,,1132.596,105.372,1.0465,104.65,105.322
1134.809,393.374,405.348,,1134.809,374.335,384.54,,1134.809,105.086,1.05411,105.411,105.222
1137.021,380.776,396.065,,1137.021,371.398,379.121,,1137.021,102.525,1.04469,104.469,105.107
1139.233,370.723,384.684,,1139.233,349.913,370.158,,1139.233,105.947,1.03924,103.924,104.809
1141.446,360.397,373.875,,1141.446,346.154,357.45,,1141.446,104.115,1.04595,104.595,104.647
1143.658,350.797,364.624,,1143.658,340.03,350.921,,1143.658,103.166,1.03905,103.905,104.53
1145.871,335.378,353.467,,1145.871,331.449,342.534,,1145.871,101.185,1.03192,103.192,104.237
1148.083,327.413,342.275,,1148.083,325.32,335.189,,1148.083,100.643,1.02114,102.114,103.717
1150.296,321.81,332.702,,1150.296,310.099,325.84,,1150.296,103.777,1.02106,102.106,103.325
1152.508,311.207,323.983,,1152.508,304.513,314.779,,1152.508,102.198,1.02924,102.924,103.032
1154.721,298.421,313.462,,1154.721,298.015,308.209,,1154.721,100.136,1.01705,101.705,102.609
1156.933,292.635,304.129,,1156.933,288.97,300.036,,1156.933,101.268,1.01364,101.364,102.166
1159.145,277.574,294.818,,1159.145,283.56,294.558,,1159.145,97.889,1.00088,100.088,101.772
1161.358,266.604,281.964,,1161.358,274.875,287.645,,1161.358,96.991,0.98025,98.025,101.144
1163.57,267.906,274.201,,1163.57,266.734,280.18,,1163.57,100.439,0.97866,97.866,100.244
1165.783,256.753,268.846,,1165.783,261.591,272.169,,1165.783,98.1505,0.987791,98.7791,99.5069
1167.995,245.053,259.45,,1167.995,257.901,265.682,,1167.995,95.0182,0.976544,97.6544,98.8766
1170.208,242.171,251.422,,1170.208,253.846,260.44,,1170.208,95.4008,0.965371,96.5371,98.0584
1172.42,236.016,244.835,,1172.42,242.062,253.921,,1172.42,97.5023,0.964218,96.4218,97.5238
1174.633,230.314,237.141,,1174.633,239.549,247.296,,1174.633,96.1448,0.958936,95.8936,97.2058
1176.845,230.248,232.684,,1176.845,234.216,242.148,,1176.845,98.3058,0.960916,96.0916,96.7496
1179.057,219.363,228.221,,1179.057,225.701,236.343,,1179.057,97.1919,0.965633,96.5633,96.4064
1181.27,210.751,220.652,,1181.27,220.366,229.356,,1181.27,95.6368,0.962051,96.2051,96.2929
1183.482,204.865,214.3,,1183.482,216.211,224.618,,1183.482,94.7523,0.954065,95.4065,96.1703
1185.695,198.252,208.511,,1185.695,208.601,218.908,,1185.695,95.0389,0.952507,95.2507,95.968
1187.907,190.274,201.584,,1187.907,205.99,213.488,,1187.907,92.3705,0.944244,94.4244,95.7517
1190.12,181.387,193.784,,1190.12,198.65,208.843,,1190.12,91.3098,0.927895,92.7895,95.1375
1192.332,172.136,185.422,,1192.332,194.219,202.265,,1192.332,88.6298,0.916732,91.6732,94.2852
1194.545,166.339,177.096,,1194.545,193.06,197.549,,1194.545,86.1592,0.896464,89.6464,93.2106
1196.757,164.815,170.349,,1196.757,191.265,194.712,,1196.757,86.171,0.87488,87.488,91.8344
1198.969,167.381,167.337,,1198.969,187.559,192.304,,1198.969,89.2418,0.870171,87.0171,90.3428
1201.182,161.584,164.514,,1201.182,188.127,189.623,,1201.182,85.8909,0.867584,86.7584,89.0779
1203.394,153.241,160.266,,1203.394,189.694,189.042,,1203.394,80.7833,0.847781,84.7781,87.8039
1205.607,143.08,153.98,,1205.607,193.898,190.265,,1205.607,73.7914,0.809294,80.9294,86.1688
1207.819,139.829,147.458,,1207.819,189.193,191.079,,1207.819,73.9081,0.771713,77.1713,84.1695
1210.032,128.759,141.308,,1210.032,182.125,187.297,,1210.032,70.6981,0.754459,75.4459,82.0087
1212.244,125.508,133.469,,1212.244,182.512,184.81,,1212.244,68.767,0.722198,72.2198,79.3451
1214.456,116.257,127.875,,1214.456,171.173,181.129,,1214.456,67.9178,0.705989,70.5989,76.4538
1216.669,105.643,118.748,,1216.669,158.562,173.626,,1216.669,66.6257,0.683928,68.3928,73.7418
1218.881,111.939,113.847,,1218.881,149.498,164.236,,1218.881,74.8766,0.693192,69.3192,71.7911
1221.094,116.145,114.587,,1221.094,137.617,153.905,,1221.094,84.3973,0.74453,74.453,71.1454
1223.306,110.261,114.926,,1223.306,130.102,143.31,,1223.306,84.7497,0.801943,80.1943,72.0279
1225.519,97.013,109.155,,1225.519,112.498,132.02,,1225.519,86.2353,0.826805,82.6805,74.0512
1227.731,93.767,101.158,,1227.731,103.806,118.791,,1227.731,90.3291,0.851562,85.1562,76.8355
1229.944,86.522,95.686,,1229.944,97.388,110.104,,1229.944,88.8426,0.869052,86.9052,80.2958
1232.156,80.642,89.1058,,1232.156,86.883,100.672,,1232.156,92.8168,0.885105,88.5105,83.4334
1234.368,78.218,84.7282,,1234.368,89.199,93.3588,,1234.368,87.6893,0.907555,90.7555,85.9345
1236.581,70.704,79.7061,,1236.581,82.519,88.89,,1236.581,85.6821,0.896683,89.6683,87.5435
1238.793,70.465,74.6634,,1238.793,82.296,84.0546,,1238.793,85.6238,0.888273,88.8273,88.5444
1241.006,67.682,71.1225,,1241.006,74.533,80.6064,,1241.006,90.8081,0.882343,88.2343,88.8714
1242.586,68.571,69.084,,1242.586,64.806,76.3368,,1242.586,105.81,0.90499,90.499,