File: public_html/data/backup/makrolon-orange_red_326.csv
wavelength_nm,intensity,intensity_smoothed,,wavelength_nm2,intensity_i0,intensity_i0_smoothed,,wavelength_nm3,,transmission,transmission_perc,transmission_perc_smoothed
173.232,23.925,#N/A,,173.232,26.024,#N/A,,173.232,91.9344,#N/A,#N/A,#N/A
175.084,20.576,22.8981,,175.084,37.766,29.5889,,175.084,54.4829,0.773873,77.3873,#N/A
176.935,15.393,20.9158,,176.935,39.857,35.1131,,176.935,38.6206,0.59567,59.567,#N/A
178.787,13.847,17.5237,,178.787,37.584,36.6576,,178.787,36.8428,0.478037,47.8037,#N/A
180.639,18.482,15.5879,,180.639,37.128,36.8855,,180.639,49.7791,0.422603,42.2603,#N/A
182.491,15.027,15.0588,,182.491,35.582,36.7372,,182.491,42.232,0.409907,40.9907,#N/A
184.342,25.207,17.8128,,184.342,43.491,38.4251,,184.342,57.9591,0.463571,46.3571,50.4481
186.194,24.752,21.6385,,186.194,45.403,41.4134,,186.194,54.5162,0.5225,52.25,46.8152
188.046,25.206,22.8977,,188.046,44.584,44.1242,,188.046,56.536,0.518936,51.8936,46.496
189.897,21.841,23.4537,,189.897,43.31,43.8577,,189.897,50.4295,0.534768,53.4768,48.0765
191.749,20.386,20.7214,,191.749,43.4,43.6501,,191.749,46.9724,0.474716,47.4716,49.4944
193.601,26.203,21.729,,193.601,44.945,44.6684,,193.601,58.3001,0.486452,48.6452,50.4633
195.453,22.929,23.2478,,195.453,40.853,43.7579,,195.453,56.1256,0.531281,53.1281,51.0834
197.304,18.11,21.9175,,197.304,44.67,42.9419,,197.304,40.5418,0.510399,51.0399,51.0098
199.156,17.2,19.0155,,199.156,41.124,43.5822,,199.156,41.8247,0.436314,43.6314,49.5968
201.008,13.654,17.8209,,201.008,35.305,40.7299,,201.008,38.6744,0.437539,43.7539,48.1454
202.86,20.653,17.5123,,202.86,44.395,41.25,,202.86,46.521,0.424542,42.4542,47.2069
204.711,18.652,19.3641,,204.711,43.03,42.5105,,204.711,43.3465,0.455514,45.5514,45.9905
206.563,14.469,17.9375,,206.563,41.575,41.5212,,206.563,34.8022,0.432007,43.2007,44.4116
208.415,18.741,17.9763,,208.415,41.756,41.3975,,208.415,44.8822,0.434238,43.4238,43.6002
210.267,16.376,17.8809,,210.267,38.119,40.5497,,210.267,42.9602,0.440963,44.0963,43.6383
212.118,16.011,15.8598,,212.118,41.481,39.618,,212.118,38.5984,0.40032,40.032,43.4998
213.97,16.829,16.8826,,213.97,40.389,40.2939,,213.97,41.6673,0.418986,41.8986,42.9452
215.822,13.282,16.1224,,215.822,34.661,38.4798,,215.822,38.3197,0.418983,41.8983,42.4228
217.673,20.099,16.2436,,217.673,41.933,38.7408,,217.673,47.9312,0.419289,41.9289,42.152
219.525,21.553,19.5302,,219.525,44.568,41.7339,,219.525,48.3598,0.467969,46.7969,42.5277
221.377,20.734,20.3594,,221.377,44.749,42.7725,,221.377,46.334,0.475993,47.5993,43.3742
223.229,16.642,18.8106,,223.229,43.657,42.8089,,223.229,38.1199,0.439408,43.9408,44.2891
225.08,16.186,17.3308,,225.08,40.566,42.6129,,225.08,39.9004,0.406703,40.6703,44.2081
226.932,20.64,17.7808,,226.932,42.474,41.5992,,226.932,48.5944,0.427431,42.7431,44.3709
228.784,17.73,18.8702,,228.784,44.291,42.036,,228.784,40.0307,0.448906,44.8906,44.4493
230.636,12.001,17.5004,,230.636,42.926,42.496,,230.636,27.9574,0.411813,41.1813,43.5978
232.487,13.727,16.062,,232.487,39.743,42.2131,,232.487,34.5394,0.380499,38.0499,42.0374
234.339,17.726,16.3499,,234.339,42.197,41.7141,,234.339,42.0077,0.391952,39.1952,41.1659
236.191,22.18,18.4059,,236.191,45.378,43.5585,,236.191,48.8783,0.422556,42.2556,41.1287
238.043,25.088,21.7467,,238.043,56.013,46.5648,,238.043,44.7896,0.46702,46.702,41.3744
239.894,28.45,24.5773,,239.894,61.103,53.244,,239.894,46.5607,0.461598,46.1598,41.7734
241.746,28.813,26.4479,,241.746,58.284,56.4093,,241.746,49.4355,0.468856,46.8856,43.2006
243.598,26.539,27.0507,,243.598,62.828,58.4586,,243.598,42.2407,0.462733,46.2733,44.9343
245.449,27.447,27.0176,,245.449,67.464,62.2546,,245.449,40.6839,0.433986,43.3986,45.6962
247.301,25.537,26.6778,,247.301,74.008,67.0479,,247.301,34.5057,0.397892,39.7892,45.0206
249.153,27.536,26.8652,,249.153,76.462,71.9343,,249.153,36.0127,0.373468,37.3468,43.484
251.005,28.171,27.4823,,251.005,78.824,74.4033,,251.005,35.7391,0.369369,36.9369,41.7342
252.856,29.806,28.5026,,252.856,84.096,77.687,,252.856,35.4428,0.36689,36.689,39.733
254.681,27.533,28.2296,,254.681,83.277,80.7354,,254.681,33.0619,0.349656,34.9656,37.9261
256.513,31.259,28.8546,,256.513,85.73,82.9864,,256.513,36.4621,0.347703,34.7703,36.5164
258.347,30.985,29.9103,,258.347,87.911,85.0558,,258.347,35.2459,0.351655,35.1655,35.8583
260.181,33.893,30.8594,,260.181,84.546,85.9536,,260.181,40.0882,0.359024,35.9024,35.5381
262.017,35.71,33.9739,,262.017,84.181,85.3776,,262.017,42.4205,0.397925,39.7925,35.9429
263.853,36.981,35.0636,,263.853,88.362,86.106,,263.853,41.8517,0.407214,40.7214,36.7657
265.691,35.798,35.589,,265.691,92.361,87.7832,,265.691,38.7588,0.405419,40.5419,37.9534
267.53,30.888,34.0791,,267.53,91.36,89.4831,,267.53,33.8091,0.380844,38.0844,38.6864
269.369,32.887,32.3763,,269.369,92.995,90.0457,,269.369,35.3643,0.359554,35.9554,38.9153
271.21,34.158,31.8263,,271.21,97.903,92.4478,,271.21,34.8896,0.344263,34.4263,38.3887
273.052,31.43,32.5541,,273.052,94.902,94.2616,,273.052,33.1184,0.345359,34.5359,37.3494
274.895,26.156,31.1557,,274.895,88.446,92.3501,,274.895,29.5728,0.337366,33.7366,36.0435
276.739,30.246,30.0562,,276.739,88.082,90.1149,,276.739,34.3385,0.333531,33.3531,34.7978
278.584,25.79,29.3376,,278.584,88.171,88.4909,,278.584,29.25,0.331532,33.1532,34.0885
280.431,29.061,28.1909,,280.431,90.716,89.2624,,280.431,32.0351,0.315821,31.5821,33.4503
282.278,34.333,30.4145,,282.278,89.714,89.8304,,282.278,38.2694,0.338577,33.8577,33.1177
284.126,33.604,32.5444,,284.126,92.441,90.4788,,284.126,36.3518,0.359691,35.9691,33.3608
285.976,35.876,33.4611,,285.976,93.803,91.1303,,285.976,38.2461,0.367178,36.7178,33.9416
287.826,31.693,33.6803,,287.826,92.802,91.8899,,287.826,34.1512,0.366528,36.6528,34.5775
289.678,29.055,31.5058,,289.678,89.255,90.7646,,289.678,32.5528,0.347116,34.7116,35.1444
291.531,29.872,31.322,,291.531,92.527,90.6522,,291.531,32.2846,0.345518,34.5518,35.5916
293.385,27.144,31.0814,,293.385,90.526,91.3556,,293.385,29.9848,0.340225,34.0225,35.421
295.239,30.415,29.427,,295.239,91.07,90.4104,,295.239,33.3974,0.325483,32.5483,34.7801
297.095,33.414,31.3117,,297.095,94.887,92.2607,,297.095,35.2145,0.339383,33.9383,34.1234
298.952,34.322,33.6915,,298.952,95.431,93.5602,,298.952,35.9653,0.360105,36.0105,34.0283
300.81,30.684,33.3873,,300.81,93.793,94.3954,,300.81,32.7146,0.353696,35.3696,34.234
302.669,30.046,31.7225,,302.669,88.338,91.817,,302.669,34.0125,0.345496,34.5496,34.3299
304.53,26.136,30.1585,,304.53,89.609,89.7095,,304.53,29.1667,0.33618,33.618,34.5373
306.391,29.134,29.1441,,306.391,88.062,89.1865,,306.391,33.0835,0.326777,32.6777,34.4719
308.253,30.406,28.5428,,308.253,93.152,90.2314,,308.253,32.6413,0.316329,31.6329,33.9655
310.117,33.223,29.5455,,310.117,91.605,91.4441,,310.117,36.2677,0.323099,32.3099,33.2928
311.981,32.676,31.6613,,311.981,91.422,91.101,,311.981,35.7419,0.347541,34.7541,33.1631
313.847,36.947,33.0537,,313.847,95.33,91.2889,,313.847,38.7569,0.362078,36.2078,33.4382
315.713,34.219,34.3357,,315.713,94.329,93.5318,,315.713,36.2762,0.367101,36.7101,34.2171
317.581,33.581,34.459,,317.581,98.418,94.6417,,317.581,34.1208,0.3641,36.41,34.9954
319.45,32.307,34.2753,,319.45,96.326,96.297,,319.45,33.5392,0.355933,35.5933,35.6855
321.319,28.851,31.6647,,321.319,90.416,95.3567,,321.319,31.9092,0.332065,33.2065,35.7245
323.19,29.849,31.1414,,323.19,94.142,94.0786,,323.19,31.7064,0.331015,33.1015,35.278
325.062,25.757,29.1334,,325.062,93.14,93.6586,,325.062,27.6541,0.31106,31.106,34.3155
326.935,27.392,27.2752,,326.935,97.503,94.264,,326.935,28.0935,0.289349,28.9349,32.9636
328.809,30.209,27.9106,,328.809,101.683,97.2686,,328.809,29.709,0.286944,28.6944,31.6047
330.685,33.48,30.334,,330.685,99.227,99.6732,,330.685,33.7408,0.304334,30.4334,30.7019
332.561,27.933,30.3035,,332.561,99.771,99.774,,332.561,27.9971,0.303722,30.3722,30.2388
334.438,24.932,27.855,,334.438,97.679,98.6843,,334.438,25.5244,0.282263,28.2263,29.5845
336.316,30.566,28.5556,,336.316,102.496,99.0986,,336.316,29.8217,0.288153,28.8153,29.2492
338.196,34.474,30.3817,,338.196,102.131,101.62,,338.196,33.7547,0.298973,29.8973,29.3686
340.076,34.745,32.3208,,340.076,99.947,101.981,,340.076,34.7634,0.316928,31.6928,29.7405
341.958,32.107,33.3433,,341.958,96.491,99.8221,,341.958,33.2746,0.334027,33.4027,30.1723
343.84,37.742,34.5439,,343.84,102.49,99.8795,,343.84,36.8251,0.345856,34.5856,31.0441
345.724,29.741,34.4631,,345.724,103.579,101.973,,345.724,28.7133,0.337963,33.7963,32.2323
347.609,26.649,31.1178,,347.609,98.042,100.992,,347.609,27.1812,0.308123,30.8123,32.702
349.495,35.551,31.4421,,349.495,106.676,101.908,,349.495,33.3261,0.308533,30.8533,32.6465
351.382,35.061,34.0152,,351.382,105.402,104.69,,351.382,33.2641,0.324912,32.4912,32.5375
353.269,28.834,32.8184,,353.269,105.292,104.512,,353.269,27.3848,0.314015,31.4015,32.2083
355.158,29.942,31.1264,,355.158,115.346,107.968,,355.158,25.9584,0.288291,28.8291,31.2359
357.048,36.361,32.1372,,357.048,110.673,111.077,,357.048,32.8544,0.289323,28.9323,30.5298
358.94,32.319,32.6417,,358.94,111.762,109.872,,358.94,28.9177,0.29709,29.709,30.4224
360.832,41.224,35.3625,,360.832,113.053,110.748,,360.832,36.4643,0.319307,31.9307,30.2917
362.725,35.563,36.6732,,362.725,115.754,112.854,,362.725,30.7229,0.324961,32.4961,30.3446
364.619,36.239,36.6084,,364.619,111.863,113.697,,364.619,32.3959,0.321982,32.1982,30.6895
366.515,31.936,35.6599,,366.515,120.36,114.787,,366.515,26.5337,0.31066,31.066,31.3024
368.411,33.55,33.4076,,368.411,120.326,118.882,,368.411,27.8826,0.281015,28.1015,31.1389
370.308,36.517,33.1948,,370.308,118.77,118.855,,370.308,30.746,0.279287,27.9287,30.7286
372.207,35.204,34.8113,,372.207,125.223,119.59,,372.207,28.113,0.291088,29.1088,30.0226
374.107,39.346,36.5236,,374.107,125.543,122.975,,374.107,31.3407,0.296999,29.6999,29.4948
376.007,40.379,37.7357,,376.007,125.651,124.338,,376.007,32.1358,0.303494,30.3494,29.1142
377.909,33.438,36.7001,,377.909,131.77,125.91,,377.909,25.376,0.291479,29.1479,29.1827
379.812,33.568,35.6583,,379.812,139.358,130.63,,379.812,24.0876,0.272971,27.2971,29.1672
381.716,36.192,35.9475,,381.716,139.065,134.212,,381.716,26.0252,0.267841,26.7841,28.8323
383.62,32.468,35.9187,,383.62,145.735,138.843,,383.62,22.2788,0.2587,25.87,28.2945
385.526,29.132,33.2407,,385.526,137.409,139.962,,385.526,21.2009,0.237499,23.7499,27.2264
387.433,34.786,32.6361,,387.433,141.168,139.514,,387.433,24.6416,0.233927,23.3927,25.9113
389.341,31.182,32.2921,,389.341,145.868,142.1,,389.341,21.3769,0.22725,22.725,24.8854
391.25,34.113,32.8674,,391.25,151.691,146.125,,391.25,22.4885,0.224926,22.4926,24.046
393.161,37.299,34.7058,,393.161,160.884,150.977,,393.161,23.1838,0.229875,22.9875,23.3294
395.072,40.095,36.9073,,395.072,183.671,161.883,,395.072,21.8298,0.227988,22.7988,22.9531
396.984,45.342,39.2732,,396.984,208.373,180.311,,396.984,21.76,0.217808,21.7808,22.7024
398.897,50.915,43.731,,398.897,246.89,204.525,,398.897,20.6225,0.213817,21.3817,22.3725
400.812,47.241,45.4801,,400.812,313.157,242.129,,400.812,15.0854,0.187834,18.7834,21.8376
402.727,40.549,44.1951,,402.727,415.887,302.785,,402.727,9.75,0.145962,14.5962,20.5552
404.644,48.158,43.9108,,404.644,560.653,396.039,,404.644,8.58963,0.110875,11.0875,18.4603
406.561,50.49,46.3002,,406.561,774.298,531.273,,406.561,6.52075,0.0871496,8.71496,16.0093
408.48,49.11,47.0443,,408.48,1093.481,734.641,,408.48,4.49116,0.064037,6.4037,13.2493
410.4,48.821,48.6615,,410.4,1550.196,1031.22,,410.4,3.14934,0.0471881,4.71881,10.3505
412.32,51.937,49.1673,,412.32,2222.732,1462.76,,412.32,2.33663,0.0336126,3.36126,7.81986
414.242,61.143,51.5812,,414.242,3163.461,2085.57,,414.242,1.93279,0.0247324,2.47324,5.89469
416.165,67.695,58.5764,,416.165,4451.47,2958.03,,416.165,1.52073,0.0198025,1.98025,4.39227
418.089,72.112,65.3525,,418.089,6190.243,4157.76,,418.089,1.16493,0.0157182,1.57182,3.25266
420.014,68.877,68.3287,,420.014,8451.974,5767.44,,420.014,0.814922,0.0118473,1.18473,2.42707
421.939,73.532,69.8321,,421.939,11338.22,7870.72,,421.939,0.648532,0.00887238,0.887238,1.83395
423.866,75.616,73.0165,,423.866,14858.071,10548.9,,423.866,0.508922,0.00692174,0.692174,1.41819
425.795,75.893,74.2092,,425.795,18999.297,13820.5,,425.795,0.399452,0.00536949,0.536949,1.1008
427.724,71.593,74.3906,,427.724,23830.084,17724.6,,427.724,0.300431,0.00419703,0.419703,0.84602
429.654,71.824,72.693,,429.654,29330.442,22281.3,,429.654,0.244879,0.00326251,0.326251,0.64714
431.585,74.316,71.8667,,431.585,35524.486,27504.1,,431.585,0.209197,0.00261294,0.261294,0.501756
433.517,72.854,71.8456,,433.517,42427.542,33418,,433.517,0.171714,0.00214991,0.214991,0.393866
435.451,67.127,70.8324,,435.451,49887.621,39995.1,,435.451,0.134556,0.00177103,0.177103,0.311833
437.385,62.824,67.9829,,437.385,57254.674,47073.2,,437.385,0.109727,0.0014442,0.14442,0.249113
439.32,55.878,63.922,,439.32,62514.822,53892.5,,439.32,0.0893836,0.0011861,0.11861,0.201477
441.257,54.615,59.5154,,441.257,64000,58913.9,,441.257,0.0853359,0.00101021,0.101021,0.16536
443.194,56.023,57.3941,,443.194,63674.793,61526.8,,443.194,0.087983,0.000932831,0.0932831,0.137633
445.133,53.137,56.2072,,445.133,62227.685,62338.3,,445.133,0.0853913,0.000901648,0.0901648,0.117232
447.072,44.127,51.9497,,447.072,59293.563,61635.3,,447.072,0.0744212,0.000842856,0.0842856,0.102921
449.013,38.897,47.063,,449.013,53142.307,59010.9,,449.013,0.073194,0.000797531,0.0797531,0.0931096
450.955,40.007,42.9941,,450.955,44477.703,53779.7,,450.955,0.0899484,0.000799449,0.0799449,0.0872904
452.897,41.835,40.9752,,452.897,36198.569,46764.1,,452.897,0.115571,0.000876211,0.0876211,0.0850791
454.841,43.819,42.2699,,454.841,29497.312,39472.2,,454.841,0.148553,0.00107088,0.107088,0.0869129
456.786,39.907,41.9671,,456.786,24370.579,32900.3,,456.786,0.163751,0.00127559,0.127559,0.0932938
458.732,34.553,38.7912,,458.732,20454.45,27407.8,,458.732,0.168927,0.00141534,0.141534,0.103951
460.679,28.894,34.9398,,460.679,17336.43,22959.3,,460.679,0.166666,0.00152181,0.152181,0.117347
462.627,35.284,34.4854,,462.627,14707.613,19335.7,,462.627,0.239903,0.00178351,0.178351,0.133677
464.576,32.496,34.4595,,464.576,12463.222,16334.4,,464.576,0.260735,0.00210963,0.210963,0.153724
466.526,35.603,34.0592,,466.526,10551.892,13810.2,,466.526,0.337409,0.00246623,0.246623,0.176273
468.477,35.963,36.0109,,468.477,9025.241,11703.9,,468.477,0.398471,0.00307683,0.307683,0.205588
470.429,35.767,35.5745,,470.429,7818.333,9984.2,,470.429,0.457476,0.00356307,0.356307,0.242532
472.382,36.66,35.1718,,472.382,6899.26,8608.48,,472.382,0.531361,0.00408571,0.408571,0.286308
474.336,30.297,34.3663,,474.336,6186.437,7525.12,,474.336,0.489733,0.00456687,0.456687,0.334424
476.292,33.98,32.1654,,476.292,5650.679,6682.84,,476.292,0.601344,0.00481314,0.481314,0.381346
478.248,33.005,32.5159,,478.248,5248.95,6036.29,,478.248,0.628792,0.00538674,0.538674,0.429358
480.205,32.63,32.4998,,480.205,4936.14,5542.55,,480.205,0.661043,0.0058637,0.58637,0.476186
482.164,34.558,33.3029,,482.164,4730.842,5169.31,,482.164,0.730483,0.00644243,0.644243,0.522935
484.123,35.599,33.7106,,484.123,4621.49,4909.27,,484.123,0.770293,0.00686672,0.686672,0.568218
486.083,36.859,34.4465,,486.083,4648.985,4759.32,,486.083,0.79284,0.00723771,0.723771,0.61495
488.045,41.385,36.3434,,488.045,4831.615,4743.7,,488.045,0.856546,0.00766139,0.766139,0.661094
490.007,38.356,37.5905,,490.007,5132.308,4858.48,,490.007,0.747344,0.0077371,0.77371,0.701828
491.971,35.3,36.9205,,491.971,5580.085,5109.18,,491.971,0.632607,0.00722629,0.722629,0.727124
493.936,36.018,36.5657,,493.936,6134.021,5491.74,,493.936,0.587184,0.00665832,0.665832,0.730716
495.901,37.002,36.4399,,495.901,6805.139,5993.71,,495.901,0.543736,0.00607969,0.607969,0.715881
497.868,34.185,36.0617,,497.868,7560.527,6605.84,,497.868,0.452151,0.00545906,0.545906,0.682856
499.836,37.753,36.5825,,499.836,8398.979,7313.26,,499.836,0.449495,0.00500221,0.500221,0.632124
501.804,40.309,39.4426,,501.804,9288.26,8101.74,,501.804,0.433978,0.0048684,0.48684,0.581203
503.774,35.537,37.6017,,503.774,10243.017,8963.53,,503.774,0.346939,0.00419497,0.419497,0.532999
505.745,35.107,36.4076,,505.745,11150.964,9863.56,,505.745,0.314834,0.00369112,0.369112,0.48424
507.717,34.903,36.2961,,507.717,12055.608,10765.2,,507.717,0.289517,0.00337163,0.337163,0.438922
509.69,30.114,34.0979,,509.69,12973.535,11674.3,,509.69,0.232119,0.00292077,0.292077,0.398004
511.664,36.345,32.7366,,511.664,13871.801,12583.8,,511.664,0.262006,0.00260148,0.260148,0.355499
513.639,39.793,36.3774,,513.639,14671.604,13461.2,,513.639,0.271225,0.00270238,0.270238,0.318591
515.615,40.674,38.2062,,515.615,15397.06,14281.8,,515.615,0.264167,0.00267517,0.267517,0.294514
517.592,41.191,39.4642,,517.592,16069.592,15040.5,,517.592,0.256329,0.00262386,0.262386,0.277329
519.57,40.267,40.1184,,519.57,16637.44,15729,,519.57,0.242026,0.00255061,0.255061,0.265735
521.549,42.759,40.0901,,521.549,17143.404,16334.7,,521.549,0.24942,0.00245429,0.245429,0.260515
523.529,43.346,40.5999,,523.529,17567.495,16868.9,,523.529,0.24674,0.00240679,0.240679,0.256523
525.51,45.161,42.8274,,525.51,17912.017,17326.5,,525.51,0.252127,0.00247178,0.247178,0.252026
527.493,47.706,45.3371,,527.493,18129.767,17691.4,,527.493,0.263136,0.00256267,0.256267,0.249908
529.476,51.688,47.5982,,529.476,18298.241,17965.2,,529.476,0.282475,0.00264946,0.264946,0.250317
531.46,53.398,50.4498,,531.46,18376.976,18162.2,,531.46,0.29057,0.00277773,0.277773,0.254812
533.446,61.932,53.8621,,533.446,18394.461,18277.2,,533.446,0.336688,0.00294695,0.294695,0.263137
535.432,72.018,60.5313,,535.432,18380.008,18335.7,,535.432,0.391828,0.00330127,0.330127,0.2775
537.419,81.028,68.1897,,537.419,18314.218,18342.9,,537.419,0.442432,0.00371751,0.371751,0.297998
539.408,96.715,79.3339,,539.408,18241.306,18310.1,,539.408,0.530198,0.00433279,0.433279,0.327442
541.397,114.972,92.7082,,541.397,18116.433,18244.7,,541.397,0.634628,0.00508138,0.508138,0.368327
543.388,128.497,107.595,,543.388,18010.748,18152.8,,543.388,0.713446,0.0059272,0.59272,0.422577
545.379,148.878,123.922,,545.379,17860.086,18041.7,,545.379,0.833579,0.00686868,0.686868,0.48891
547.372,180.357,145.713,,547.372,17739.367,17915.4,,547.372,1.0167,0.00813336,0.813336,0.569502
549.365,205.68,170.58,,549.365,17602.812,17792,,549.365,1.16845,0.00958747,0.958747,0.667973
551.36,245.873,198.715,,551.36,17418.725,17651.3,,551.36,1.41154,0.0112578,1.12578,0.783435
553.356,297.246,236.334,,553.356,17167.843,17468.1,,553.356,1.73141,0.0135295,1.35295,0.923259
555.352,350.495,281.308,,555.352,16964.686,17256.7,,555.352,2.06603,0.0163014,1.63014,1.09638
557.35,420.664,334.026,,557.35,16744.941,17055.5,,557.35,2.51219,0.0195847,1.95847,1.30884
559.349,520.393,403.698,,559.349,16493.069,16829.6,,559.349,3.15522,0.0239874,2.39874,1.57149
561.348,630.633,491.03,,561.348,16250.673,16589.7,,561.348,3.88066,0.0295985,2.95985,1.90583
563.349,765.913,596.067,,563.349,15993.017,16348.1,,563.349,4.78905,0.0364609,3.64609,2.32654
565.351,942.198,728.475,,565.351,15706.557,16090.7,,565.351,5.99876,0.045273,4.5273,2.85508
567.354,1162.927,894.226,,567.354,15408.025,15816.3,,567.354,7.54754,0.0565384,5.65384,3.52683
569.358,1425.135,1097.43,,569.358,15122.221,15533,,569.358,9.42411,0.0706516,7.06516,4.37992
571.363,1751.626,1348.79,,571.363,14803.019,15236.5,,571.363,11.8329,0.0885238,8.85238,5.45562
573.368,2124.926,1651.74,,573.368,14476.131,14927.8,,573.368,14.6788,0.110649,11.0649,6.811
575.375,2550.616,2002.92,,575.375,14137.525,14603.3,,575.375,18.0415,0.137156,13.7156,8.49981
577.383,3032.978,2408.47,,577.383,13856.848,14288,,577.383,21.8879,0.168566,16.8566,10.5697
579.392,3571.796,2869.59,,579.392,13553.915,13989.5,,579.392,26.3525,0.205124,20.5124,13.0669
581.402,4144.276,3379.56,,581.402,13220.763,13677.3,,581.402,31.3467,0.247092,24.7092,16.0333
583.413,4721.487,3924.01,,583.413,12883.828,13351.8,,583.413,36.6466,0.293894,29.3894,19.4877
585.425,5332.091,4496.69,,585.425,12565.841,13024.3,,585.425,42.4332,0.345253,34.5253,23.4349
587.439,5907.115,5082.9,,587.439,12218.756,12701.1,,587.439,48.3447,0.400195,40.0195,27.8641
589.453,6436.128,5649.55,,589.453,11860.998,12358.4,,589.453,54.263,0.457142,45.7142,32.7269
591.468,6937.853,6189.69,,591.468,11532.923,12014.7,,591.468,60.1569,0.515178,51.5178,37.9467
593.484,7379.828,6695.76,,593.484,11205.222,11680.4,,593.484,65.8606,0.573246,57.3246,43.4313
595.501,7755.115,7150.41,,595.501,10855.083,11343.6,,595.501,71.4422,0.630348,63.0348,49.0805
597.519,8047.194,7545.16,,597.519,10499.447,10998.9,,597.519,76.644,0.685992,68.5992,54.788
599.539,8256.752,7865.81,,599.539,10162.072,10650.4,,599.539,81.2507,0.738543,73.8543,60.4492
601.559,8421.449,8116.28,,601.559,9798.777,10300.6,,601.559,85.9439,0.787939,78.7939,65.9718
603.58,8456.004,8291.36,,603.58,9459.679,9949.95,,603.58,89.39,0.833307,83.3307,71.2811
605.602,8421.827,8369.29,,605.602,9106.042,9603.99,,605.602,92.4861,0.871439,87.1439,76.2571
607.626,8383.588,8390.37,,607.626,8752.966,9252.65,,607.626,95.78,0.906808,90.6808,80.8427
609.65,8264.323,8358.53,,609.65,8417.211,8907.23,,609.65,98.1836,0.938399,93.8399,85.0206
611.675,8100.574,8271.13,,611.675,8081.183,8566.92,,611.675,100.24,0.965473,96.5473,88.7706
613.702,7910.477,8134.99,,613.702,7750.473,8230.89,,613.702,102.064,0.988349,98.8349,92.065
615.729,7691.096,7965.63,,615.729,7428.717,7899.72,,615.729,103.532,1.00834,100.834,94.9555
617.757,7464.297,7761.98,,617.757,7107.102,7574.24,,617.757,105.026,1.02479,102.479,97.4808
619.787,7227.079,7549.01,,619.787,6777.411,7248.79,,619.787,106.635,1.04142,104.142,99.6745
621.817,6920.123,7300.76,,621.817,6479.382,6926.44,,621.817,106.802,1.05404,105.404,101.577
623.849,6679.134,7039.02,,623.849,6197.39,6621.21,,623.849,107.773,1.0631,106.31,103.183
625.881,6407.982,6786.87,,625.881,5898.7,6323.7,,625.881,108.634,1.07324,107.324,104.567
627.915,6116.716,6513.64,,627.915,5597.269,6026.39,,627.915,109.28,1.08085,108.085,105.764
629.949,5853.623,6239.27,,629.949,5317.543,5729.63,,629.949,110.081,1.08895,108.895,106.798
631.985,5612.645,5976.93,,631.985,5078.235,5452.72,,631.985,110.524,1.09614,109.614,107.68
634.021,5372.008,5726.16,,634.021,4845.814,5199.17,,634.021,110.859,1.10136,110.136,108.476
636.059,5126.834,5478.14,,636.059,4614.617,4957.05,,636.059,111.1,1.10512,110.512,109.167
638.098,4879.255,5231.34,,638.098,4396.936,4722.31,,638.098,110.969,1.10779,110.779,109.747
640.137,4647.314,4986.99,,640.137,4190.298,4500.78,,640.137,110.907,1.10803,110.803,110.197
642.178,4409.458,4748.81,,642.178,3977.679,4285.8,,642.178,110.855,1.10803,110.803,110.498
644.219,4185.454,4512.36,,644.219,3776.175,4074.28,,644.219,110.838,1.10752,110.752,110.673
646.262,3982.01,4289.38,,646.262,3579.935,3869.46,,646.262,111.231,1.10852,110.852,110.77
648.306,3778.162,4075.62,,648.306,3390.26,3668.67,,648.306,111.442,1.11092,111.092,110.839
650.35,3577.66,3867.3,,650.35,3226.089,3481.54,,650.35,110.898,1.1108,111.08,110.897
652.396,3378.239,3663.51,,652.396,3054.629,3304.68,,652.396,110.594,1.10858,110.858,110.919
654.443,3194.991,3466.64,,654.443,2884.204,3130.37,,654.443,110.775,1.10742,110.742,110.915
656.49,3011.457,3277.65,,656.49,2731.414,2962.54,,656.49,110.253,1.10637,110.637,110.898
658.539,2849.747,3097.09,,658.539,2580.731,2804.5,,658.539,110.424,1.10433,110.433,110.811
660.589,2697.713,2928.4,,660.589,2427.603,2648.13,,660.589,111.127,1.10584,110.584,110.7
662.64,2539.782,2766.6,,662.64,2288.091,2497.08,,662.64,111,1.10794,110.794,110.657
664.691,2380.231,2608.3,,664.691,2164.156,2356.33,,664.691,109.984,1.10693,110.693,110.654
666.744,2245.027,2453.46,,666.744,2045.696,2226.29,,666.744,109.744,1.10204,110.204,110.581
668.798,2122.504,2312.62,,668.798,1925.154,2100.21,,668.798,110.251,1.10114,110.114,110.502
670.853,1998.368,2180.79,,670.853,1815.214,1979.64,,670.853,110.09,1.10161,110.161,110.438
672.909,1872.286,2053.67,,672.909,1715.56,1867.31,,672.909,109.136,1.0998,109.98,110.317
674.965,1760.704,1928.92,,674.965,1611.947,1762.64,,674.965,109.228,1.09433,109.433,110.083
677.023,1653.597,1813.45,,677.023,1524.155,1660.97,,677.023,108.493,1.0918,109.18,109.85
679.082,1554.998,1704.81,,679.082,1432.954,1566.48,,679.082,108.517,1.0883,108.83,109.62
681.142,1458.801,1601.42,,681.142,1354.302,1476.52,,681.142,107.716,1.08459,108.459,109.328
683.203,1367.618,1503.22,,683.203,1270.438,1392.78,,683.203,107.649,1.0793,107.93,108.942
685.265,1283.359,1412.33,,685.265,1184.315,1306.68,,685.265,108.363,1.08085,108.085,108.619
687.327,1196.484,1323.22,,687.327,1118.864,1225.41,,687.327,106.937,1.07982,107.982,108.38
689.391,1124.268,1237.41,,689.391,1065.445,1157.43,,689.391,105.521,1.0691,106.91,108.05
691.456,1064.002,1163.27,,691.456,1002.409,1093.7,,691.456,106.144,1.06361,106.361,107.629
693.522,989.684,1092.75,,693.522,947.984,1031.78,,693.522,104.399,1.05909,105.909,107.223
695.589,933.389,1024.49,,695.589,895.937,974.024,,695.589,104.18,1.05181,105.181,106.729
697.657,878.703,964.213,,697.657,844.05,920.439,,697.657,104.106,1.04756,104.756,106.115
699.726,827.832,907.159,,699.726,793.442,867.434,,699.726,104.334,1.0458,104.58,105.553
701.796,779.887,853.419,,701.796,752.07,817.616,,701.796,103.699,1.04379,104.379,105.141
703.867,734.001,802.967,,703.867,717.422,774.53,,703.867,102.311,1.03671,103.671,104.702
705.939,688.002,756.205,,705.939,679.315,735.617,,705.939,101.279,1.02799,102.799,104.225
708.012,637.092,706.804,,708.012,636.773,694.687,,708.012,100.05,1.01744,101.744,103.67
710.085,604.284,660.181,,710.085,606.364,655.382,,710.085,99.657,1.00732,100.732,102.977
712.16,562.897,620.512,,712.16,566.369,620.068,,712.16,99.387,1.00072,100.072,102.171
714.236,525.181,581.029,,714.236,532.352,582.695,,714.236,98.653,0.99714,99.714,101.354
716.313,491.674,543.951,,716.313,505.864,550.157,,716.313,97.1949,0.988718,98.8718,100.567
718.391,452.81,506.371,,718.391,472.365,517.728,,718.391,95.8602,0.978063,97.8063,99.7661
720.47,424.911,470.724,,720.47,447.827,487.368,,720.47,94.8828,0.965851,96.5851,98.9463
722.55,400.938,441.395,,722.55,433.743,462.584,,722.55,92.4368,0.954194,95.4194,98.0624
724.631,372.351,413.838,,724.631,409.02,440.922,,724.631,91.0349,0.938575,93.8575,96.9992
726.713,353.125,387.271,,726.713,388.541,418.692,,726.713,90.8849,0.924954,92.4954,95.7586
728.796,335.355,363.865,,728.796,371.186,398.504,,728.796,90.3469,0.913078,91.3078,94.4727
730.88,315.075,342.925,,730.88,349.794,379.032,,730.88,90.0744,0.904737,90.4737,93.2393
732.965,298.358,324.547,,732.965,336.604,360.43,,732.965,88.6377,0.900442,90.0442,92.1241
735.051,284.907,307.708,,735.051,326.387,344.836,,735.051,87.2912,0.89233,89.233,91.1218
737.138,273.628,292.981,,737.138,309.643,331.615,,737.138,88.3689,0.883497,88.3497,90.2399
739.226,254.389,278.194,,739.226,297.074,317.355,,739.226,85.6315,0.876601,87.6601,89.4768
741.315,244.45,263.951,,741.315,293.86,307.387,,741.315,83.1859,0.858692,85.8692,88.6044
743.405,232.477,251.206,,743.405,277.141,297.104,,743.405,83.884,0.845517,84.5517,87.5575
745.496,223.188,239.484,,745.496,267.722,284.507,,745.496,83.3656,0.841752,84.1752,86.5422
747.588,205.212,227.732,,747.588,263.788,275.873,,747.588,77.7943,0.825496,82.5496,85.4811
749.681,197.941,214.195,,749.681,251.092,266.248,,749.681,78.8321,0.804494,80.4494,84.1083
751.775,191.581,204.922,,751.775,245.16,256.03,,751.775,78.1453,0.800382,80.0382,82.8137
753.87,184.177,196.511,,753.87,247.608,251.097,,753.87,74.3825,0.782608,78.2608,81.6082
755.966,173.76,187.201,,755.966,236.574,246.921,,755.966,73.4485,0.758141,75.8141,80.1056
758.063,156.012,174.935,,758.063,221.635,236.698,,758.063,70.3914,0.739064,73.9064,78.3722
760.161,139.457,160.362,,760.161,205.981,223.779,,760.161,67.7038,0.71661,71.661,76.6504
762.26,134.32,148.324,,762.26,201.861,212.771,,762.26,66.5408,0.697106,69.7106,74.7521
764.36,130.661,139.309,,764.36,202.38,207.356,,764.36,64.5622,0.671836,67.1836,72.588
766.461,130.727,134.56,,766.461,204.113,204.812,,766.461,64.0464,0.656994,65.6994,70.481
768.562,129.502,132.659,,768.562,201.143,203.635,,768.562,64.3831,0.651455,65.1455,68.6176
770.665,126.879,130.477,,770.665,193.588,199.951,,770.665,65.5407,0.652541,65.2541,67.14
772.769,119.931,126.751,,772.769,193.397,196.739,,772.769,62.0129,0.644258,64.4258,66.0214
774.874,115.007,122.794,,774.874,185.475,193.222,,774.874,62.0067,0.635509,63.5509,65.1029
776.98,112.764,118.441,,776.98,189.418,190.42,,776.98,59.5318,0.622,62.2,64.3761
779.087,101.262,112.072,,779.087,181.983,187.565,,779.087,55.6437,0.597513,59.7513,63.452
781.195,96.688,104.575,,781.195,180.753,184.49,,781.195,53.4918,0.566832,56.6832,62.0099
783.304,99.524,100.677,,783.304,173.935,181.758,,783.304,57.2191,0.55391,55.391,60.1956
785.414,95.549,99.1453,,785.414,167.726,177.097,,785.414,56.9673,0.559837,55.9837,58.6732
787.525,82.408,93.6358,,787.525,158.788,170.284,,787.525,51.8981,0.549881,54.9881,57.2648
789.637,84.973,88.6713,,789.637,156.031,163.472,,789.637,54.459,0.542425,54.2425,55.9635
791.749,89.78,88.5098,,791.749,153.463,159.225,,791.749,58.5027,0.555879,55.5879,55.3537
793.863,78.242,86.1986,,793.863,150.563,156.128,,793.863,51.9663,0.552104,55.2104,55.3275
795.978,76.342,81.9691,,795.978,150.986,153.586,,795.978,50.5623,0.533702,53.3702,54.9525
798.094,80.816,80.3765,,798.094,150.643,152.262,,798.094,53.6474,0.527882,52.7882,54.3618
800.211,79.175,79.7921,,800.211,146.816,150.657,,800.211,53.928,0.529627,52.9627,54.0701
802.329,74.291,78.5554,,802.329,147.662,149.629,,802.329,50.3115,0.525001,52.5001,53.6893
804.448,69.348,74.1672,,804.448,146.668,148.293,,804.448,47.2823,0.500139,50.0139,52.7316
806.567,73.248,72.0083,,806.567,155.107,149.196,,806.567,47.2242,0.482641,48.2641,51.6554
808.688,71.809,72.2179,,808.688,147.652,150.275,,808.688,48.634,0.480572,48.0572,50.7361
810.81,70.958,71.5762,,810.81,146.27,148.305,,810.81,48.5117,0.482628,48.2628,49.8292
812.933,68.991,69.8941,,812.933,144.419,147.154,,812.933,47.7714,0.474973,47.4973,48.8616
815.057,63.554,68.1107,,815.057,153.045,147.675,,815.057,41.5263,0.461222,46.1222,47.9588
817.181,62.018,65.9354,,817.181,155.736,151.328,,817.181,39.8225,0.435711,43.5711,47.0143
819.307,62.308,63.0284,,819.307,151.672,152.245,,819.307,41.0808,0.413993,41.3993,45.8347
821.434,64.479,62.2145,,821.434,160.59,153.76,,821.434,40.1513,0.40462,40.462,44.4681
823.562,58.419,62.9961,,823.562,163.951,158.246,,823.562,35.632,0.39809,39.809,42.9721
825.69,60.153,61.9305,,825.69,174.003,163.075,,825.69,34.5701,0.379767,37.9767,41.3137
827.82,59.446,60.1907,,827.82,189.855,173.097,,827.82,31.3113,0.347728,34.7728,39.5975
829.951,60.377,60.2926,,829.951,205.274,186.255,,829.951,29.4129,0.323711,32.3711,37.816
832.082,55.661,59.3468,,832.082,215.495,198.43,,832.082,25.8294,0.299082,29.9082,35.8315
834.215,52.418,55.0395,,834.215,216.898,206.786,,834.215,24.1671,0.266166,26.6166,33.4175
836.349,44.038,50.7444,,836.349,219.103,211.731,,836.349,20.0992,0.239665,23.9665,30.7453
838.483,46.928,48.0686,,838.483,241.528,220.303,,838.483,19.4296,0.218193,21.8193,28.0388
840.619,52.965,48.3043,,840.619,278.337,239.836,,840.619,19.0291,0.201405,20.1405,25.5591
842.755,56.881,51.3213,,842.755,333.384,272.42,,842.755,17.0617,0.188391,18.8391,23.2821
844.893,59.653,54.6722,,844.893,400.011,320.492,,844.893,14.9128,0.170589,17.0589,21.2252
847.032,66.479,57.5439,,847.032,474.535,380.132,,847.032,14.0093,0.151379,15.1379,19.352
849.171,61.55,60.1337,,849.171,556.983,450.155,,849.171,11.0506,0.133584,13.3584,17.6526
851.312,54.948,58.7033,,851.312,630.508,525.136,,851.312,8.71488,0.111787,11.1787,15.9253
853.453,58.994,58.3244,,853.453,703.737,599.605,,853.453,8.38296,0.0972713,9.72713,14.1109
855.596,52.192,57.2894,,855.596,769.709,671.021,,855.596,6.78074,0.0853765,8.53765,12.3654
857.739,48.161,54.5644,,857.739,829.831,738.184,,857.739,5.80371,0.0739171,7.39171,10.7568
859.884,46.761,52.0042,,859.884,871.417,796.955,,859.884,5.36609,0.0652536,6.52536,9.28364
862.029,49.796,50.8371,,862.029,905.793,845.071,,862.029,5.4975,0.0601572,6.01572,8.07656
864.175,37.713,47.1577,,864.175,932.101,884.121,,864.175,4.04602,0.0533385,5.33385,7.14815
866.323,39.288,42.0253,,866.323,956.712,915.345,,866.323,4.10656,0.045912,4.5912,6.29728
868.471,44.344,42.2242,,868.471,993.127,945.857,,868.471,4.46509,0.0446412,4.46412,5.6234
870.621,34.283,40.8781,,870.621,1031.509,979.757,,870.621,3.32358,0.0417227,4.17227,5.11533
872.771,34.093,37.6522,,872.771,1082.553,1018.45,,872.771,3.14931,0.03697,3.697,4.65443
874.922,33.367,35.1502,,874.922,1157.861,1070.42,,874.922,2.88178,0.0328379,3.28379,4.20443
877.075,32.888,32.8081,,877.075,1234.603,1135.19,,877.075,2.66385,0.028901,2.8901,3.83426
879.228,36.045,33.9746,,879.228,1331.316,1211.7,,879.228,2.70747,0.0280387,2.80387,3.51798
881.382,34.736,35.0047,,881.382,1420.587,1298.52,,881.382,2.44519,0.0269575,2.69575,3.2068
883.537,32.892,34.2621,,883.537,1504.383,1384.85,,883.537,2.18641,0.0247406,2.47406,2.9413
885.694,30.979,33.9364,,885.694,1575.576,1466.43,,885.694,1.9662,0.0231422,2.31422,2.72344
887.851,33.072,33.0016,,887.851,1624.133,1535.65,,887.851,2.03629,0.0214903,2.14903,2.5481
890.009,32.067,32.5407,,890.009,1658.197,1592.38,,890.009,1.93385,0.0204353,2.04353,2.4022
892.168,33.892,32.1514,,892.168,1654.916,1627.2,,892.168,2.04796,0.0197588,1.97588,2.25522
894.328,38.48,34.6118,,894.328,1623.094,1635.81,,894.328,2.37078,0.0211588,2.11588,2.15319
896.489,38.437,36.5403,,896.489,1559.063,1613.7,,896.489,2.46539,0.0226438,2.26438,2.11813
898.651,33.686,35.8567,,898.651,1463.155,1561.85,,898.651,2.30229,0.0229578,2.29578,2.13215
900.815,34.332,34.9457,,900.815,1371.84,1486.62,,900.815,2.50262,0.0235068,2.35068,2.17591
902.979,29.458,33.6044,,902.979,1278.203,1404.37,,902.979,2.30464,0.0239284,2.39284,2.2462
905.144,33.069,32.0707,,905.144,1176.028,1312.13,,905.144,2.81192,0.0244417,2.44417,2.32152
907.31,39.25,34.0662,,907.31,1086.914,1218.25,,907.31,3.61114,0.0279632,2.79632,2.41553
909.477,44.633,37.8214,,909.477,995.007,1125.59,,909.477,4.4857,0.0336015,3.36015,2.58623
911.644,41.537,40.0215,,911.644,906.569,1034.2,,911.644,4.58178,0.0386981,3.86981,2.85809
913.813,36.693,39.682,,913.813,837.096,949.149,,913.813,4.38337,0.041808,4.1808,3.18978
915.983,36.215,38.4626,,915.983,779.347,876.084,,915.983,4.64684,0.0439029,4.39029,3.55393
918.154,33.555,35.718,,918.154,720.052,810.915,,918.154,4.66008,0.0440466,4.40466,3.9018
920.326,40.077,35.5788,,920.326,664.393,749.018,,920.326,6.03212,0.0475006,4.75006,4.20227
922.499,34.325,36.6535,,922.499,626.552,695.278,,922.499,5.4784,0.0527178,5.27178,4.49732
924.673,34.664,34.3067,,924.673,585.166,648.683,,924.673,5.92379,0.0528867,5.28867,4.73066
926.847,40.185,34.9384,,926.847,544.415,604.98,,926.847,7.38132,0.0577513,5.77513,4.98447
929.023,37.251,37.9653,,929.023,503.118,561.581,,929.023,7.40403,0.0676043,6.76043,5.38008
931.2,32.77,36.3769,,931.2,461.003,519.111,,931.2,7.10841,0.0700754,7.00754,5.84671
933.377,35.471,35.2055,,933.377,423.069,477.983,,933.377,8.38421,0.0736544,7.36544,6.26118
935.556,35.081,35.4711,,935.556,394.863,441.516,,935.556,8.88435,0.0803394,8.03394,6.7478
937.736,31.6,34.1405,,937.736,366.565,410.534,,937.736,8.62057,0.0831611,8.31611,7.27753
939.916,30.845,31.8006,,939.916,346.448,382.393,,939.916,8.90321,0.0831621,8.31621,7.67066
942.098,35.181,31.8444,,942.098,328.331,358.575,,942.098,10.7151,0.0888083,8.88083,8.01252
944.28,34.698,34.1572,,944.28,309.213,337.735,,944.28,11.2214,0.101136,10.1136,8.51549
946.464,24.579,31.6919,,946.464,292.368,318.275,,946.464,8.40687,0.0995741,9.95741,8.98284
948.648,26.732,27.9596,,948.648,277.341,301.738,,948.648,9.63868,0.0926617,9.26617,9.21386
950.834,33.429,30.0417,,950.834,265.768,285.869,,950.834,12.5783,0.105089,10.5089,9.55852
953.02,31.399,31.5625,,953.02,255.012,272.17,,953.02,12.3128,0.115966,11.5966,10.0919
955.207,33.914,32.6521,,955.207,249.711,262,,955.207,13.5813,0.124627,12.4627,10.622
957.396,34.701,34.3601,,957.396,236.5,252.082,,957.396,14.6727,0.136305,13.6305,11.1947
959.585,37.397,35.6237,,959.585,236.106,242.885,,959.585,15.8391,0.146669,14.6669,12.0972
961.775,37.001,35.8335,,961.775,229.44,237.911,,961.775,16.1267,0.150617,15.0617,13.0771
963.966,33.151,36.0489,,963.966,221.773,231.494,,963.966,14.9482,0.155723,15.5723,13.9148
966.159,33.572,34.3442,,966.159,219.105,225.236,,966.159,15.3223,0.152481,15.2481,14.5411
968.352,40.811,34.9579,,968.352,220.619,222.053,,968.352,18.4984,0.157431,15.7431,15.0317
970.546,34.323,35.7042,,970.546,218.496,220.446,,970.546,15.7088,0.161963,16.1963,15.4572
972.741,32.47,35.5402,,972.741,219.555,220.312,,972.741,14.789,0.161318,16.1318,15.7161
974.937,32.253,34.6737,,974.937,218.158,219.266,,974.937,14.7842,0.158135,15.8135,15.8109
977.134,33.762,33.878,,977.134,219.124,219.024,,977.134,15.4077,0.154677,15.4677,15.8292
979.332,36.09,34.4294,,979.332,221.817,219.666,,979.332,16.2702,0.156735,15.6735,15.8766
981.531,39.416,36.5092,,981.531,227.964,223.572,,981.531,17.2904,0.163299,16.3299,15.8552
983.731,35.197,35.9707,,983.731,233.383,227.857,,983.731,15.0812,0.157865,15.7865,15.8393
985.932,35.249,35.2665,,985.932,240.438,232.49,,985.932,14.6603,0.151691,15.1691,15.731
988.134,33.665,35.7089,,988.134,249.583,238.987,,988.134,13.4885,0.149418,14.9418,15.6317
990.336,31.262,34.8532,,990.336,255.455,246.471,,990.336,12.2378,0.141409,14.1409,15.4133
992.54,29.312,33.2998,,992.54,261.962,253.353,,992.54,11.1894,0.131436,13.1436,14.9527
994.745,33.999,32.1592,,994.745,274.288,260.722,,994.745,12.3954,0.123347,12.3347,14.2372
996.951,36.684,34.0233,,996.951,286.612,270.187,,996.951,12.7992,0.125925,12.5925,13.6585
999.157,37.278,35.6583,,999.157,293.481,280.193,,999.157,12.702,0.127263,12.7263,13.1987
1001.365,38.235,38.3985,,1001.365,301.168,289.222,,1001.365,12.6956,0.132765,13.2765,12.9147
1003.573,39.737,38.3967,,1003.573,303.763,296.508,,1003.573,13.0816,0.129496,12.9496,12.7684
1005.783,36.783,37.3805,,1005.783,310.267,301.218,,1005.783,11.8553,0.124098,12.4098,12.7422
1007.993,35.556,35.921,,1007.993,329.769,311.349,,1007.993,10.7821,0.115372,11.5372,12.6376
1010.205,36.601,35.61,,1010.205,350.362,326.477,,1010.205,10.4466,0.109073,10.9073,12.3469
1012.417,40.463,36.7133,,1012.417,374.227,345.141,,1012.417,10.8124,0.106372,10.6372,11.9259
1014.631,38.052,37.9419,,1014.631,403,368.867,,1014.631,9.44218,0.10286,10.286,11.4298
1016.845,38.003,38.3487,,1016.845,427.136,393.454,,1016.845,8.89717,0.0974667,9.74667,10.8885
1019.06,39.681,38.9492,,1019.06,460.817,418.868,,1019.06,8.61101,0.0929868,9.29868,10.3757
1021.277,40.176,40.1519,,1021.277,488.77,448.532,,1021.277,8.21982,0.0895185,8.95185,9.95288
1023.494,41.216,41.3349,,1023.494,508.176,474.235,,1023.494,8.11058,0.0871611,8.71611,9.5741
1025.712,41.345,41.6189,,1025.712,529.673,497.215,,1025.712,7.80576,0.0837041,8.37041,9.17679
1027.931,42.565,41.4439,,1027.931,553.986,519.436,,1027.931,7.68341,0.0797864,7.97864,8.80309
1030.151,38.147,41.4342,,1030.151,563.39,539.993,,1030.151,6.77098,0.076731,7.6731,8.46922
1032.372,35.183,38.934,,1032.372,575.884,555.399,,1032.372,6.10939,0.0701009,7.01009,8.09853
1034.594,32.036,35.9359,,1034.594,581.558,567.714,,1034.594,5.50865,0.0632993,6.32993,7.66456
1036.817,30.434,33.936,,1036.817,588.232,576.536,,1036.817,5.17381,0.0588619,5.88619,7.17507
1039.041,35.74,33.8406,,1039.041,588.632,583.337,,1039.041,6.07171,0.0580121,5.80121,6.71743
1041.266,42.862,36.1392,,1041.266,590.031,586.847,,1041.266,7.26436,0.061582,6.1582,6.36334
1043.492,39.439,38.7953,,1043.492,586.793,588.034,,1043.492,6.72111,0.0659746,6.59746,6.20181
1045.718,39.923,39.2588,,1045.718,596.644,589.947,,1045.718,6.69126,0.0665464,6.65464,6.18512
1047.946,42.224,40.066,,1047.946,593.313,592.824,,1047.946,7.11665,0.067585,6.7585,6.30112
1050.175,34.525,38.2496,,1050.175,601.617,594.302,,1050.175,5.7387,0.0643605,6.43605,6.45524
1052.405,32.187,35.8091,,1052.405,602.011,599.239,,1052.405,5.34658,0.0597576,5.97576,6.49612
1054.635,28.758,33.6389,,1054.635,596.403,597.902,,1054.635,4.82191,0.0562616,5.62616,6.36341
1056.867,34.146,31.5228,,1056.867,592.068,595.968,,1056.867,5.76724,0.0528934,5.28934,6.12078
1059.099,34.805,33.1077,,1059.099,580.549,590.142,,1059.099,5.99519,0.0561012,5.61012,5.8983
1061.333,32.19,32.8703,,1061.333,581.393,583.967,,1061.333,5.5367,0.056288,5.6288,5.70115
1063.567,33.301,32.0827,,1063.567,572.872,579.42,,1063.567,5.81299,0.0553705,5.53705,5.57207
1065.802,29.593,31.138,,1065.802,567.258,573.583,,1065.802,5.21685,0.0542868,5.42868,5.51176
1068.039,36.065,31.9622,,1068.039,565.462,569.197,,1068.039,6.37797,0.0561532,5.61532,5.52776
1070.276,33.354,33.6824,,1070.276,558.937,565.166,,1070.276,5.9674,0.0595975,5.95975,5.62017
1072.514,29.914,32.4985,,1072.514,559.139,561.587,,1072.514,5.35001,0.057869,5.7869,5.65966
1074.753,29.928,31.8023,,1074.753,550.884,558.469,,1074.753,5.43272,0.0569455,5.69455,5.68245
1076.993,35.122,32.0741,,1076.993,535.083,550.983,,1076.993,6.56384,0.0582124,5.82124,5.7196
1079.234,30.314,32.0298,,1079.234,534.007,542.727,,1079.234,5.6767,0.0590165,5.90165,5.81148
1081.476,30.323,30.8227,,1081.476,529.385,537.937,,1081.476,5.72797,0.057298,5.7298,5.8026
1083.719,26.24,29.6317,,1083.719,527.215,532.68,,1083.719,4.9771,0.0556276,5.56276,5.74704
1085.963,23.974,26.4325,,1085.963,520.772,529.228,,1085.963,4.60355,0.0499454,4.99454,5.64072
1088.208,24.524,25.7115,,1088.208,513.782,522.837,,1088.208,4.77323,0.0491769,4.91769,5.49619
1090.454,24.618,25.0019,,1090.454,508.245,517.41,,1090.454,4.84373,0.0483212,4.83212,5.29296
1092.772,28.437,25.393,,1092.772,503.615,512.319,,1092.772,5.64658,0.0495649,4.95649,5.11739
1094.985,29.528,27.7733,,1094.985,503.075,508.097,,1094.985,5.8695,0.0546614,5.46614,5.05322
1097.197,25.345,28.8308,,1097.197,501.351,505.686,,1097.197,5.05534,0.0570132,5.70132,5.12006
1099.409,23.25,26.9772,,1099.409,492.535,500.414,,1099.409,4.72048,0.0539098,5.39098,5.22591
1101.622,24.245,25.7446,,1101.622,486.626,494.006,,1101.622,4.98227,0.0521139,5.21139,5.29578
1103.834,21.147,24.5126,,1103.834,478.08,487.981,,1103.834,4.42332,0.0502327,5.02327,5.34926
1106.047,22.957,22.4407,,1106.047,472.804,481.235,,1106.047,4.8555,0.0466315,4.66315,5.25637
1108.259,21.946,22.0433,,1108.259,469.89,475.543,,1108.259,4.67045,0.046354,4.6354,5.07688
1110.472,23.661,22.4062,,1110.472,464.157,470.658,,1110.472,5.09763,0.0476061,4.76061,4.91312
1112.684,28.283,25.0541,,1112.684,458.24,466.471,,1112.684,6.17209,0.0537099,5.37099,4.89136
1114.897,28.267,27.6176,,1114.897,439.867,458.028,,1114.897,6.42626,0.0602968,6.02968,5.01088
1117.109,23.431,26.1118,,1117.109,433.31,445.914,,1117.109,5.40745,0.0585579,5.85579,5.22889
1119.321,26.139,26.0325,,1119.321,426.297,436.608,,1119.321,6.13164,0.0596244,5.96244,5.45393
1121.534,24.754,26.0143,,1121.534,422.645,429.973,,1121.534,5.85692,0.0605023,6.05023,5.71249
1123.746,26.821,26.156,,1123.746,415.719,425.571,,1123.746,6.45171,0.0614609,6.14609,5.92383
1125.959,31.614,28.7225,,1125.959,403.973,416.838,,1125.959,7.82577,0.0689058,6.89058,6.11795
1128.171,32.495,31.4331,,1128.171,398.589,409.039,,1128.171,8.15251,0.0768463,7.68463,6.39518
1130.384,31.375,32.0958,,1130.384,395.84,403.913,,1130.384,7.92618,0.0794621,7.94621,6.78578
1132.596,29.435,31.6962,,1132.596,378.543,395.556,,1132.596,7.77587,0.0801307,8.01307,7.16306
1134.809,35.947,32.4336,,1134.809,374.335,384.54,,1134.809,9.6029,0.0843438,8.43438,7.56841
1137.021,39.366,35.719,,1137.021,371.398,379.121,,1137.021,10.5994,0.0942151,9.42151,8.08225
1139.233,36.419,36.1485,,1139.233,349.913,370.158,,1139.233,10.408,0.0976568,9.76568,8.55027
1141.446,43.38,37.6769,,1141.446,346.154,357.45,,1141.446,12.532,0.105405,10.5405,9.00885
1143.658,46.157,41.2791,,1143.658,340.03,350.921,,1143.658,13.5744,0.117631,11.7631,9.65386
1145.871,46.659,43.7442,,1145.871,331.449,342.534,,1145.871,14.0773,0.127708,12.7708,10.4931
1148.083,50.25,47.3321,,1148.083,325.32,335.189,,1148.083,15.4463,0.14121,14.121,11.401
1150.296,54.657,49.752,,1150.296,310.099,325.84,,1150.296,17.6257,0.152689,15.2689,12.3943
1152.508,58.88,52.797,,1152.508,304.513,314.779,,1152.508,19.3358,0.167727,16.7727,13.5851
1154.721,61.556,56.3338,,1154.721,298.015,308.209,,1154.721,20.6553,0.182778,18.2778,14.8783
1156.933,65.775,59.4876,,1156.933,288.97,300.036,,1156.933,22.7619,0.198268,19.8268,16.2298
1159.145,68.629,61.8108,,1159.145,283.56,294.558,,1159.145,24.2026,0.209842,20.9842,17.6405
1161.358,72.663,65.8542,,1161.358,274.875,287.645,,1161.358,26.4349,0.228943,22.8943,19.1217
1163.57,71.422,69.1747,,1163.57,266.734,280.18,,1163.57,26.7765,0.246894,24.6894,20.7076
1165.783,70.997,69.9569,,1165.783,261.591,272.169,,1165.783,27.1405,0.257035,25.7035,22.2154
1167.995,75.935,71.7125,,1167.995,257.901,265.682,,1167.995,29.4435,0.269918,26.9918,23.6679
1170.208,84.143,76.1269,,1170.208,253.846,260.44,,1170.208,33.1473,0.292301,29.2301,25.204
1172.42,89.531,81.5709,,1172.42,242.062,253.921,,1172.42,36.9868,0.321246,32.1246,26.9858
1174.633,86.827,84.7238,,1174.633,239.549,247.296,,1174.633,36.246,0.342601,34.2601,28.8894
1176.845,88.758,86.9167,,1176.845,234.216,242.148,,1176.845,37.8958,0.358941,35.8941,30.8322
1179.057,95.506,90.342,,1179.057,225.701,236.343,,1179.057,42.3153,0.382249,38.2249,32.9616
1181.27,93.434,92.4896,,1181.27,220.366,229.356,,1181.27,42.3995,0.403259,40.3259,35.2261
1183.482,94.452,93.3627,,1183.482,216.211,224.618,,1183.482,43.6851,0.415651,41.5651,37.271
1185.695,98.832,94.9846,,1185.695,208.601,218.908,,1185.695,47.3785,0.433902,43.3902,39.0769
1187.907,93.211,94.8211,,1187.907,205.99,213.488,,1187.907,45.2503,0.444153,44.4153,40.8388
1190.12,92.316,93.3942,,1190.12,198.65,208.843,,1190.12,46.4717,0.447198,44.7198,42.3384
1192.332,93.875,94.1408,,1192.332,194.219,202.265,,1192.332,48.3346,0.465433,46.5433,43.6043
1194.545,93.252,93.981,,1194.545,193.06,197.549,,1194.545,48.3021,0.475734,47.5734,44.8224
1196.757,95.81,94.4486,,1196.757,191.265,194.712,,1196.757,50.0928,0.485069,48.5069,45.9491
1198.969,92.549,95.1383,,1198.969,187.559,192.304,,1198.969,49.3439,0.494729,49.4729,46.9444
1201.182,91.834,94.1691,,1201.182,188.127,189.623,,1201.182,48.8149,0.496611,49.6611,47.8899
1203.394,90.845,93.1441,,1203.394,189.694,189.042,,1203.394,47.8903,0.492717,49.2717,48.6362
1205.607,93.494,94.3981,,1205.607,193.898,190.265,,1205.607,48.2181,0.496141,49.6141,49.0773
1207.819,87.415,92.4773,,1207.819,189.193,191.079,,1207.819,46.2041,0.483975,48.3975,49.2222
1210.032,86.973,88.0602,,1210.032,182.125,187.297,,1210.032,47.7546,0.470163,47.0163,48.8889
1212.244,85.805,87.3425,,1212.244,182.512,184.81,,1212.244,47.0133,0.472607,47.2607,48.4564
1214.456,80.638,85.1985,,1214.456,171.173,181.129,,1214.456,47.1091,0.470376,47.0376,47.9995
1216.669,80.563,82.942,,1216.669,158.562,173.626,,1216.669,50.8085,0.477706,47.7706,47.6546
1218.881,74.398,80.799,,1218.881,149.498,164.236,,1218.881,49.7652,0.49197,49.197,47.6142
1221.094,73.235,77.9583,,1221.094,137.617,153.905,,1221.094,53.2165,0.506535,50.6535,48.1007
1223.306,73.62,75.6051,,1223.306,130.102,143.31,,1223.306,56.5864,0.527564,52.7564,49.0023
1225.519,69.461,73.7227,,1225.519,112.498,132.02,,1225.519,61.7442,0.558419,55.8419,50.4648
1227.731,64.668,70.2342,,1227.731,103.806,118.791,,1227.731,62.297,0.59124,59.124,52.5552
1229.944,62.151,66.9174,,1229.944,97.388,110.104,,1229.944,63.8179,0.607766,60.7766,54.8019
1232.156,58.728,63.5099,,1232.156,86.883,100.672,,1232.156,67.5944,0.630857,63.0857,57.2033
1234.368,52.308,59.9251,,1234.368,89.199,93.3588,,1234.368,58.6419,0.641879,64.1879,59.64
1236.581,51.437,55.1276,,1236.581,82.519,88.89,,1236.581,62.3335,0.620177,62.0177,61.2228
1238.793,51.934,52.5168,,1238.793,82.296,84.0546,,1238.793,63.1063,0.624795,62.4795,62.1725
1241.006,45.344,50.8403,,1241.006,74.533,80.6064,,1241.006,60.8375,0.630723,63.0723,62.7562
1242.586,38.054,48.4378,,1242.586,64.806,76.3368,,1242.586,58.7199,0.634528,63.4528,