File: public_html/data/backup/makrolon-flieder_blue_539.csv
wavelength_nm,intensity,intensity_smoothed,,wavelength_nm2,intensity_i0,intensity_i0_smoothed,,wavelength_nm3,,transmission,transmission_perc,transmission_perc_smoothed
173.232,24.191,#N/A,,173.232,26.024,#N/A,,173.232,92.9565,#N/A,#N/A,#N/A
175.084,31.312,26.3709,,175.084,37.766,29.5889,,175.084,82.9106,0.891241,89.1241,#N/A
176.935,34.039,29.7124,,176.935,39.857,35.1131,,176.935,85.4028,0.846192,84.6192,#N/A
178.787,35.856,32.2193,,178.787,37.584,36.6576,,178.787,95.4023,0.878926,87.8926,#N/A
180.639,34.128,32.8807,,180.639,37.128,36.8855,,180.639,91.9198,0.891427,89.1427,#N/A
182.491,32.037,32.8441,,182.491,35.582,36.7372,,182.491,90.0371,0.894029,89.4029,#N/A
184.342,34.673,32.4115,,184.342,43.491,38.4251,,184.342,79.7245,0.843499,84.3499,87.4924
186.194,35.672,33.9664,,186.194,45.403,41.4134,,186.194,78.5675,0.82018,82.018,86.662
188.046,32.217,33.9171,,188.046,44.584,44.1242,,188.046,72.2613,0.768673,76.8673,85.3484
189.897,30.762,32.4035,,189.897,43.31,43.8577,,189.897,71.0275,0.738832,73.8832,82.6064
191.749,33.034,31.1112,,191.749,43.4,43.6501,,191.749,76.1152,0.71274,71.274,79.3368
193.601,35.216,32.1603,,193.601,44.945,44.6684,,193.601,78.3535,0.719979,71.9979,76.1696
195.453,32.488,32.3308,,195.453,40.853,43.7579,,195.453,79.5241,0.738856,73.8856,74.3714
197.304,34.487,32.3628,,197.304,44.67,42.9419,,197.304,77.2039,0.753642,75.3642,73.3748
199.156,34.85,33.2235,,199.156,41.124,43.5822,,199.156,84.7437,0.762318,76.2318,73.5009
201.008,36.941,34.3371,,201.008,35.305,40.7299,,201.008,104.634,0.843044,84.3044,75.2704
202.86,35.849,35.3705,,202.86,44.395,41.25,,202.86,80.7501,0.857468,85.7468,78.3094
204.711,31.485,34.6564,,204.711,43.03,42.5105,,204.711,73.1699,0.815243,81.5243,80.1542
206.563,33.03,33.2087,,206.563,41.575,41.5212,,206.563,79.4468,0.7998,79.98,81.0623
208.415,34.484,34.3991,,208.415,41.756,41.3975,,208.415,82.5845,0.830947,83.0947,82.2235
210.267,28.12,32.4804,,210.267,38.119,40.5497,,210.267,73.769,0.801002,80.1002,82.5141
212.118,28.119,30.2771,,212.118,41.481,39.618,,212.118,67.7877,0.764228,76.4228,80.7949
213.97,29.391,28.9905,,213.97,40.389,40.2939,,213.97,72.7698,0.719477,71.9477,78.788
215.822,31.845,30.2253,,215.822,34.661,38.4798,,215.822,91.8756,0.785484,78.5484,78.1568
217.673,33.299,31.6562,,217.673,41.933,38.7408,,217.673,79.41,0.817128,81.7128,78.3502
219.525,33.298,32.5448,,219.525,44.568,41.7339,,219.525,74.7128,0.779817,77.9817,77.8538
221.377,35.48,32.9151,,221.377,44.749,42.7725,,221.377,79.2867,0.769538,76.9538,77.5155
223.229,37.479,34.669,,223.229,43.657,42.8089,,223.229,85.8488,0.809855,80.9855,78.4552
225.08,34.751,35.8435,,225.08,40.566,42.6129,,225.08,85.6653,0.841142,84.1142,80.2168
226.932,32.569,34.6988,,226.932,42.474,41.5992,,226.932,76.6799,0.834121,83.4121,80.7844
228.784,30.75,33.1134,,228.784,44.291,42.036,,228.784,69.4272,0.787738,78.7738,80.8491
230.636,28.749,31.2649,,230.636,42.926,42.496,,230.636,66.9734,0.735714,73.5714,80.4576
232.487,32.112,30.0768,,232.487,39.743,42.2131,,232.487,80.7991,0.712499,71.2499,79.2001
234.339,33.566,31.9407,,234.339,42.197,41.7141,,234.339,79.5459,0.765704,76.5704,77.7759
236.191,33.929,33.5307,,236.191,45.378,43.5585,,236.191,74.7697,0.769785,76.9785,76.4784
238.043,34.838,33.7056,,238.043,56.013,46.5648,,238.043,62.1963,0.723842,72.3842,74.9922
239.894,47.655,37.7433,,239.894,61.103,53.244,,239.894,77.9913,0.708875,70.8875,73.8087
241.746,51.291,44.6391,,241.746,58.284,56.4093,,241.746,88.0019,0.791342,79.1342,74.7025
243.598,49.654,47.4569,,243.598,62.828,58.4586,,243.598,79.0316,0.811803,81.1803,76.0826
245.449,54.926,49.6757,,245.449,67.464,62.2546,,245.449,81.4153,0.797945,79.7945,76.5693
247.301,51.016,52.0474,,247.301,74.008,67.0479,,247.301,68.9331,0.776273,77.6273,77.1514
249.153,53.743,51.4993,,249.153,76.462,71.9343,,249.153,70.2872,0.715921,71.5921,77.6541
251.005,63.47,55.8362,,251.005,78.824,74.4033,,251.005,80.5212,0.750454,75.0454,77.486
252.856,65.469,59.8339,,252.856,84.096,77.687,,252.856,77.8503,0.770191,77.0191,76.7106
254.681,65.196,63.0191,,254.681,83.277,80.7354,,254.681,78.2881,0.780564,78.0564,76.2031
256.513,65.74,63.3319,,256.513,85.73,82.9864,,256.513,76.6826,0.76316,76.316,75.7851
258.347,70.376,65.6883,,258.347,87.911,85.0558,,258.347,80.0537,0.772297,77.2297,76.1632
260.181,72.012,68.794,,260.181,84.546,85.9536,,260.181,85.1749,0.800362,80.0362,77.3937
262.017,66.375,69.7785,,262.017,84.181,85.3776,,262.017,78.848,0.817293,81.7293,78.4141
263.853,67.647,68.5977,,263.853,88.362,86.106,,263.853,76.5567,0.796666,79.6666,78.9254
265.691,69.01,68.9755,,265.691,92.361,87.7832,,265.691,74.7177,0.785748,78.5748,79.1409
267.53,68.645,68.5942,,267.53,91.36,89.4831,,267.53,75.1368,0.766561,76.6561,79.2375
269.369,67.281,68.0372,,269.369,92.995,90.0457,,269.369,72.3491,0.755585,75.5585,78.7835
271.21,71.189,69.3146,,271.21,97.903,92.4478,,271.21,72.7138,0.74977,74.977,77.6006
273.052,67.098,69.7004,,273.052,94.902,94.2616,,273.052,70.7024,0.739436,73.9436,76.3476
274.895,72.461,69.0239,,274.895,88.446,92.3501,,274.895,81.9268,0.747416,74.7416,75.382
276.739,65.733,69.1868,,276.739,88.082,90.1149,,276.739,74.6271,0.767762,76.7762,75.1975
278.584,67.278,66.519,,278.584,88.171,88.4909,,278.584,76.304,0.751704,75.1704,75.1034
280.431,71.913,68.3245,,280.431,90.716,89.2624,,280.431,79.2727,0.765435,76.5435,75.2832
282.278,69.458,68.6421,,282.278,89.714,89.8304,,282.278,77.4216,0.76413,76.413,75.6907
284.126,70.184,67.0655,,284.126,92.441,90.4788,,284.126,75.923,0.741229,74.1229,75.9168
285.976,76.911,69.6368,,285.976,93.803,91.1303,,285.976,81.992,0.764145,76.4145,75.8021
287.826,72.456,72.4323,,287.826,92.802,91.8899,,287.826,78.0759,0.78825,78.825,76.256
289.678,73.364,72.8315,,289.678,89.255,90.7646,,289.678,82.196,0.802422,80.2422,77.0469
291.531,68,71.699,,291.531,92.527,90.6522,,291.531,73.4921,0.790924,79.0924,77.6564
293.385,70.363,69.8465,,293.385,90.526,91.3556,,293.385,77.7268,0.764556,76.4556,77.9531
295.239,71.816,70.458,,295.239,91.07,90.4104,,295.239,78.858,0.779313,77.9313,78.4928
297.095,67.179,69.4664,,297.095,94.887,92.2607,,297.095,70.799,0.752936,75.2936,78.1996
298.952,72.269,69.5554,,298.952,95.431,93.5602,,298.952,75.7291,0.743429,74.3429,77.2521
300.81,68.45,70.7326,,300.81,93.793,94.3954,,300.81,72.9799,0.749323,74.9323,76.2653
302.669,65.359,68.1656,,302.669,88.338,91.817,,302.669,73.9874,0.742406,74.2406,75.6296
304.53,71.812,67.9358,,304.53,89.609,89.7095,,304.53,80.1393,0.757287,75.7287,75.208
306.391,68.539,69.8585,,306.391,88.062,89.1865,,306.391,77.8304,0.783285,78.3285,75.32
308.253,67.084,68.0475,,308.253,93.152,90.2314,,308.253,72.0156,0.754144,75.4144,75.6659
310.117,69.174,68.6369,,310.117,91.605,91.4441,,310.117,75.5133,0.750589,75.0589,75.6496
311.981,66.446,67.8938,,311.981,91.422,91.101,,311.981,72.6805,0.745258,74.5258,75.6877
313.847,65.718,66.2022,,313.847,95.33,91.2889,,313.847,68.9374,0.725194,72.5194,75.4336
315.713,65.717,64.9319,,315.713,94.329,93.5318,,315.713,69.6679,0.694223,69.4223,74.1184
317.581,71.352,67.1664,,317.581,98.418,94.6417,,317.581,72.4989,0.709692,70.9692,72.8332
319.45,65.442,68.3929,,319.45,96.326,96.297,,319.45,67.938,0.710229,71.0229,72.0979
321.319,67.442,68.3911,,321.319,90.416,95.3567,,321.319,74.5908,0.717213,71.7213,71.3838
323.19,70.713,68.7809,,323.19,94.142,94.0786,,323.19,75.1131,0.7311,73.11,71.1657
325.062,70.713,70.3297,,325.062,93.14,93.6586,,325.062,75.9212,0.750916,75.0916,71.8514
326.935,71.985,70.2431,,326.935,97.503,94.264,,326.935,73.8285,0.745174,74.5174,72.7642
328.809,69.438,70.4757,,328.809,101.683,97.2686,,328.809,68.2887,0.724547,72.4547,73.1525
330.685,73.256,70.3101,,330.685,99.227,99.6732,,330.685,73.8267,0.705407,70.5407,73.1428
332.561,76.164,74.1569,,332.561,99.771,99.774,,332.561,76.3388,0.743248,74.3248,73.2669
334.438,73.708,75.182,,334.438,97.679,98.6843,,334.438,75.4594,0.761843,76.1843,73.524
336.316,72.344,74.8086,,336.316,102.496,99.0986,,336.316,70.5823,0.754891,75.4891,73.6297
338.196,73.798,73.8414,,338.196,102.131,101.62,,338.196,72.2582,0.726642,72.6642,73.5374
340.076,75.16,74.7493,,340.076,99.947,101.981,,340.076,75.1999,0.73297,73.297,73.868
341.958,74.978,74.5531,,341.958,96.491,99.8221,,341.958,77.7047,0.74686,74.686,74.3717
343.84,68.068,73.3444,,343.84,102.49,99.8795,,343.84,66.4143,0.734329,73.4329,74.2224
345.724,71.794,71.552,,345.724,103.579,101.973,,345.724,69.3133,0.701677,70.1677,73.2919
347.609,72.345,72.0915,,347.609,98.042,100.992,,347.609,73.7898,0.713836,71.3836,72.6601
349.495,72.517,72.7768,,349.495,106.676,101.908,,349.495,67.9787,0.714141,71.4141,72.4688
351.382,71.498,72.9444,,351.382,105.402,104.69,,351.382,67.8336,0.696765,69.6765,71.6992
353.269,76.056,73.7309,,353.269,105.292,104.512,,353.269,72.2334,0.705476,70.5476,70.8589
355.158,80.361,75.8976,,355.158,115.346,107.968,,355.158,69.6695,0.702961,70.2961,70.6348
357.048,78.157,77.077,,357.048,110.673,111.077,,357.048,70.6198,0.693907,69.3907,70.5069
358.94,81.572,78.7157,,358.94,111.762,109.872,,358.94,72.9872,0.716433,71.6433,70.3196
360.832,81.685,80.0722,,360.832,113.053,110.748,,360.832,72.2537,0.723016,72.3016,70.6323
362.725,78.006,79.4923,,362.725,115.754,112.854,,362.725,67.3895,0.704379,70.4379,70.839
364.619,75.389,78.0795,,364.619,111.863,113.697,,364.619,67.394,0.686732,68.6732,70.524
366.515,83.397,78.7188,,366.515,120.36,114.787,,366.515,69.2896,0.685779,68.5779,70.2778
368.411,84.332,81.6857,,368.411,120.326,118.882,,368.411,70.0863,0.687118,68.7118,69.9898
370.308,83.705,83.0963,,370.308,118.77,118.855,,370.308,70.4766,0.699138,69.9138,69.5403
372.207,83.061,83.4238,,372.207,125.223,119.59,,372.207,66.3305,0.69758,69.758,69.2203
374.107,87.752,84.211,,374.107,125.543,122.975,,374.107,69.898,0.68478,68.478,69.0624
376.007,92.011,86.2941,,376.007,125.651,124.338,,376.007,73.2274,0.69403,69.403,69.1559
377.909,88.602,87.3935,,377.909,131.77,125.91,,377.909,67.2399,0.694097,69.4097,69.369
379.812,91.104,89.0122,,379.812,139.358,130.63,,379.812,65.3741,0.681406,68.1406,69.1917
381.716,92.03,91.0622,,381.716,139.065,134.212,,381.716,66.1777,0.678493,67.8493,68.7576
383.62,91.183,91.3902,,383.62,145.735,138.843,,383.62,62.5677,0.658226,65.8226,68.2927
385.526,89.35,90.9439,,385.526,137.409,139.962,,385.526,65.0249,0.649777,64.9777,67.5953
387.433,93.496,90.9304,,387.433,141.168,139.514,,387.433,66.2303,0.651766,65.1766,66.706
389.341,99.074,93.4795,,389.341,145.868,142.1,,389.341,67.9203,0.657845,65.7845,66.1026
391.25,104.703,97.7301,,391.25,151.691,146.125,,391.25,69.0239,0.66881,66.881,65.8668
393.161,114.293,103.816,,393.161,160.884,150.977,,393.161,71.0406,0.687627,68.7627,66.0715
395.072,128.497,112.679,,395.072,183.671,161.883,,395.072,69.9604,0.696052,69.6052,66.8852
396.984,149.564,125.763,,396.984,208.373,180.311,,396.984,71.7771,0.697476,69.7476,67.7527
398.897,190.717,147.844,,398.897,246.89,204.525,,398.897,77.2478,0.722865,72.2865,68.9155
400.812,249.19,183.386,,400.812,313.157,242.129,,400.812,79.5735,0.757389,75.7389,70.5399
402.727,338.3,239.555,,402.727,415.887,302.785,,402.727,81.3442,0.791174,79.1174,72.5509
404.644,470.64,322.702,,404.644,560.653,396.039,,404.644,83.945,0.814824,81.4824,74.7191
406.561,671.914,447.392,,406.561,774.298,531.273,,406.561,86.7772,0.842113,84.2113,77.3373
408.48,980.029,638.616,,408.48,1093.481,734.641,,408.48,89.6247,0.869289,86.9289,80.2452
410.4,1411.705,921.029,,410.4,1550.196,1031.22,,410.4,91.0662,0.893141,89.3141,83.0508
412.32,2035.209,1326,,412.32,2222.732,1462.76,,412.32,91.5634,0.906505,90.6505,85.5152
414.242,2905.13,1905.21,,414.242,3163.461,2085.57,,414.242,91.8339,0.91352,91.352,87.6062
416.165,4106.197,2715.56,,416.165,4451.47,2958.03,,416.165,92.2436,0.91803,91.803,89.3142
418.089,5739.7,3835.14,,418.089,6190.243,4157.76,,418.089,92.7217,0.922405,92.2405,90.5944
420.014,7896.18,5352.46,,420.014,8451.974,5767.44,,420.014,93.4241,0.928048,92.8048,91.4659
421.939,10617.915,7343.91,,421.939,11338.22,7870.72,,421.939,93.6471,0.933067,93.3067,92.0748
423.866,13981.112,9876.03,,423.866,14858.071,10548.9,,423.866,94.0978,0.936217,93.6217,92.5548
425.795,17934.818,12997.6,,425.795,18999.297,13820.5,,425.795,94.3973,0.940457,94.0457,93.0076
427.724,22513.075,16710.1,,427.724,23830.084,17724.6,,427.724,94.4733,0.942768,94.2768,93.4313
429.654,27751.49,21044,,429.654,29330.442,22281.3,,429.654,94.6167,0.944466,94.4466,93.799
431.585,33640.016,26016.5,,431.585,35524.486,27504.1,,431.585,94.6953,0.945915,94.5915,94.0843
433.517,40215.115,31637.5,,433.517,42427.542,33418,,433.517,94.7854,0.946723,94.6723,94.3149
435.451,47424.309,37925.8,,435.451,49887.621,39995.1,,435.451,95.0623,0.948261,94.8261,94.4969
437.385,54635.392,44744,,437.385,57254.674,47073.2,,437.385,95.4252,0.950521,95.0521,94.6517
439.32,60382.676,51478,,439.32,62514.822,53892.5,,439.32,96.5894,0.955199,95.5199,94.842
441.257,63108.816,56967,,441.257,64000,58913.9,,441.257,98.6075,0.966953,96.6953,95.1837
443.194,62994.441,60239.5,,443.194,63674.793,61526.8,,443.194,98.9315,0.979078,97.9078,95.7469
445.133,61268.442,61298.6,,445.133,62227.685,62338.3,,445.133,98.4585,0.983322,98.3322,96.4136
447.072,57622.778,60483.6,,447.072,59293.563,61635.3,,447.072,97.1822,0.981314,98.1314,97.041
449.013,50737.839,57371.4,,449.013,53142.307,59010.9,,449.013,95.4754,0.972217,97.2217,97.4759
450.955,42116.133,51720.5,,450.955,44477.703,53779.7,,450.955,94.6904,0.961711,96.1711,97.5681
452.897,34138.078,44616.3,,452.897,36198.569,46764.1,,452.897,94.3078,0.954071,95.4071,97.2538
454.841,27706.616,37441.7,,454.841,29497.312,39472.2,,454.841,93.9293,0.948558,94.8558,96.6601
456.786,22874.206,31070.5,,456.786,24370.579,32900.3,,456.786,93.8599,0.944384,94.4384,95.9496
458.732,19157.518,25810.8,,458.732,20454.45,27407.8,,458.732,93.6594,0.941733,94.1733,95.2804
460.679,16200.251,21555.6,,460.679,17336.43,22959.3,,460.679,93.4463,0.93886,93.886,94.754
462.627,13720.86,18115.6,,462.627,14707.613,19335.7,,462.627,93.2909,0.9369,93.69,94.3599
464.576,11550.723,15258.5,,464.576,12463.222,16334.4,,464.576,92.6785,0.934133,93.4133,94.0463
466.526,9742.262,12847.1,,466.526,10551.892,13810.2,,466.526,92.3272,0.93026,93.026,93.7567
468.477,8296.155,10844.7,,468.477,9025.241,11703.9,,468.477,91.9217,0.926592,92.6592,93.4619
470.429,7149.755,9208.97,,470.429,7818.333,9984.2,,470.429,91.4486,0.922354,92.2354,93.1417
472.382,6288.757,7905.34,,472.382,6899.26,8608.48,,472.382,91.1512,0.91832,91.832,92.7917
474.336,5635.887,6889.24,,474.336,6186.437,7525.12,,474.336,91.1007,0.915499,91.5499,92.4199
476.292,5128.178,6100.42,,476.292,5650.679,6682.84,,476.292,90.7533,0.912849,91.2849,92.0646
478.248,4731.299,5488.75,,478.248,5248.95,6036.29,,478.248,90.138,0.909292,90.9292,91.7163
480.205,4422.966,5011.54,,480.205,4936.14,5542.55,,480.205,89.6037,0.904195,90.4195,91.3526
482.164,4224.315,4648.86,,482.164,4730.842,5169.31,,482.164,89.2931,0.899319,89.9319,90.9757
484.123,4094.839,4389.41,,484.123,4621.49,4909.27,,484.123,88.6043,0.894107,89.4107,90.573
486.083,4094.507,4229.51,,486.083,4648.985,4759.32,,486.083,88.0731,0.888679,88.8679,90.1178
488.045,4226.945,4186.72,,488.045,4831.615,4743.7,,488.045,87.4851,0.882585,88.2585,89.6072
490.007,4487.999,4270.63,,490.007,5132.308,4858.48,,490.007,87.446,0.879005,87.9005,89.0925
491.971,4834.587,4467.71,,491.971,5580.085,5109.18,,491.971,86.64,0.874446,87.4446,88.5993
493.936,5274.127,4765.91,,493.936,6134.021,5491.74,,493.936,85.9816,0.867832,86.7832,88.0799
495.901,5794.551,5159.75,,495.901,6805.139,5993.71,,495.901,85.1496,0.86086,86.086,87.5311
497.868,6392.235,5639.7,,497.868,7560.527,6605.84,,497.868,84.5475,0.853745,85.3745,86.9575
499.836,7051.284,6197.17,,499.836,8398.979,7313.26,,499.836,83.9541,0.847389,84.7389,86.359
501.804,7719.119,6813.01,,501.804,9288.26,8101.74,,501.804,83.1062,0.840931,84.0931,85.7067
503.774,8416.79,7463,,503.774,10243.017,8963.53,,503.774,82.171,0.832596,83.2596,85.0143
505.745,9102.338,8137.46,,505.745,11150.964,9863.56,,505.745,81.6283,0.825003,82.5003,84.2973
507.717,9753.972,8806.83,,507.717,12055.608,10765.2,,507.717,80.9082,0.818086,81.8086,83.5852
509.69,10374.609,9459.85,,509.69,12973.535,11674.3,,509.69,79.9675,0.810315,81.0315,82.8596
511.664,10981.486,10094.6,,511.664,13871.801,12583.8,,511.664,79.1641,0.802188,80.2188,82.0987
513.639,11508.441,10696.9,,513.639,14671.604,13461.2,,513.639,78.4402,0.794644,79.4644,81.3287
515.615,11974.287,11239.8,,515.615,15397.06,14281.8,,515.615,77.77,0.787,78.7,80.5718
517.592,12355.924,11725.2,,517.592,16069.592,15040.5,,517.592,76.8901,0.779573,77.9573,79.8078
519.57,12655.03,12134.7,,519.57,16637.44,15729,,519.57,76.0636,0.771487,77.1487,79.0307
521.549,12916.002,12473.3,,521.549,17143.404,16334.7,,521.549,75.3409,0.763612,76.3612,78.2546
523.529,13116.186,12757.5,,523.529,17567.495,16868.9,,523.529,74.6617,0.756273,75.6273,77.4873
525.51,13232.096,12977,,525.51,17912.017,17326.5,,525.51,73.8727,0.748969,74.8969,76.7255
527.493,13298.032,13129.5,,527.493,18129.767,17691.4,,527.493,73.3492,0.742143,74.2143,75.9715
529.476,13292.346,13217.9,,529.476,18298.241,17965.2,,529.476,72.6428,0.735751,73.5751,75.2425
531.46,13200.755,13236.6,,531.46,18376.976,18162.2,,531.46,71.8331,0.7288,72.88,74.538
533.446,13067.397,13186.5,,533.446,18394.461,18277.2,,533.446,71.0398,0.721474,72.1474,73.8406
535.432,12930.734,13091.1,,535.432,18380.008,18335.7,,535.432,70.3522,0.713965,71.3965,73.1394
537.419,12730.798,12959.1,,537.419,18314.218,18342.9,,537.419,69.5132,0.70649,70.649,72.4341
539.408,12532.106,12788.6,,539.408,18241.306,18310.1,,539.408,68.7018,0.698441,69.8441,71.7018
541.397,12344.473,12609.2,,541.397,18116.433,18244.7,,541.397,68.1396,0.691114,69.1114,70.9504
543.388,12100.939,12409.3,,543.388,18010.748,18152.8,,543.388,67.1873,0.683603,68.3603,70.1964
545.379,11876.055,12188,,545.379,17860.086,18041.7,,545.379,66.4949,0.675546,67.5546,69.4321
547.372,11703.625,11983,,547.372,17739.367,17915.4,,547.372,65.9754,0.668864,66.8864,68.6731
549.365,11493.314,11785.7,,549.365,17602.812,17792,,549.365,65.2925,0.662417,66.2417,67.9397
551.36,11285.973,11581.7,,551.36,17418.725,17651.3,,551.36,64.7922,0.656135,65.6135,67.2345
553.356,11081.113,11373.3,,553.356,17167.843,17468.1,,553.356,64.5457,0.651088,65.1088,66.5619
555.352,10867.335,11167.3,,555.352,16964.686,17256.7,,555.352,64.0586,0.647131,64.7131,65.9602
557.35,10651.76,10954.1,,557.35,16744.941,17055.5,,557.35,63.6118,0.64226,64.226,65.4133
559.349,10495.76,10755.7,,559.349,16493.069,16829.6,,559.349,63.6374,0.639092,63.9092,64.916
561.348,10302.824,10571.6,,561.348,16250.673,16589.7,,561.348,63.3994,0.637237,63.7237,64.5017
563.349,10100.623,10380.1,,563.349,15993.017,16348.1,,563.349,63.1565,0.634942,63.4942,64.1566
565.351,9889.646,10179.8,,565.351,15706.557,16090.7,,565.351,62.9651,0.632649,63.2649,63.8506
567.354,9700.216,9980.73,,567.354,15408.025,15816.3,,567.354,62.9556,0.631042,63.1042,63.593
569.358,9499.531,9782.08,,569.358,15122.221,15533,,569.358,62.8184,0.629759,62.9759,63.3934
571.363,9312.603,9590.25,,571.363,14803.019,15236.5,,571.363,62.9102,0.629427,62.9427,63.2253
573.368,9102.41,9394.67,,573.368,14476.131,14927.8,,573.368,62.8787,0.62934,62.934,63.0956
575.375,8902.445,9190.58,,575.375,14137.525,14603.3,,575.375,62.9703,0.62935,62.935,63.008
577.383,8721.686,8995.01,,577.383,13856.848,14288,,577.383,62.9413,0.629549,62.9549,62.9634
579.392,8541.355,8802.39,,579.392,13553.915,13989.5,,579.392,63.0176,0.629212,62.9212,62.9413
581.402,8330.391,8610.23,,581.402,13220.763,13677.3,,581.402,63.0099,0.629526,62.9526,62.9398
583.413,8117.766,8408.32,,583.413,12883.828,13351.8,,583.413,63.0074,0.629753,62.9753,62.9444
585.425,7905.829,8201.96,,585.425,12565.841,13024.3,,585.425,62.9152,0.629741,62.9741,62.9534
587.439,7723.454,8000.45,,587.439,12218.756,12701.1,,587.439,63.2098,0.629904,62.9904,62.9585
589.453,7539.341,7810.96,,589.453,11860.998,12358.4,,589.453,63.5641,0.632035,63.2035,62.9944
591.468,7350.089,7621.43,,591.468,11532.923,12014.7,,591.468,63.7314,0.634344,63.4344,63.0768
593.484,7148.219,7430.33,,593.484,11205.222,11680.4,,593.484,63.7936,0.636135,63.6135,63.1908
595.501,6974.56,7237.02,,595.501,10855.083,11343.6,,595.501,64.2516,0.637982,63.7982,63.3346
597.519,6827.875,7064.43,,597.519,10499.447,10998.9,,597.519,65.0308,0.642285,64.2285,63.5472
599.539,6660.049,6899.49,,599.539,10162.072,10650.4,,599.539,65.5383,0.647812,64.7812,63.8412
601.559,6506.605,6737.81,,601.559,9798.777,10300.6,,601.559,66.4022,0.654115,65.4115,64.2035
603.58,6329.961,6574.82,,603.58,9459.679,9949.95,,603.58,66.9152,0.660789,66.0789,64.654
605.602,6160.269,6401.25,,605.602,9106.042,9603.99,,605.602,67.6503,0.66652,66.652,65.184
607.626,6018.239,6239.99,,607.626,8752.966,9252.65,,607.626,68.7566,0.674401,67.4401,65.7966
609.65,5869.712,6085.76,,609.65,8417.211,8907.23,,609.65,69.7346,0.683239,68.3239,66.478
611.675,5730.705,5936.47,,611.675,8081.183,8566.92,,611.675,70.9142,0.692953,69.2953,67.2299
613.702,5572.236,5788.48,,613.702,7750.473,8230.89,,613.702,71.8954,0.703263,70.3263,68.0487
615.729,5414.604,5637.43,,615.729,7428.717,7899.72,,615.729,72.8875,0.713624,71.3624,68.9472
617.757,5265.407,5484.35,,617.757,7107.102,7574.24,,617.757,74.0866,0.724078,72.4078,69.9182
619.787,5123.217,5333.48,,619.787,6777.411,7248.79,,619.787,75.5925,0.735776,73.5776,70.9421
621.817,4976.52,5185.22,,621.817,6479.382,6926.44,,621.817,76.8055,0.748613,74.8613,72.0334
623.849,4843.202,5041.33,,623.849,6197.39,6621.21,,623.849,78.1491,0.761391,76.1391,73.1737
625.881,4722.924,4908.17,,625.881,5898.7,6323.7,,625.881,80.0672,0.776154,77.6154,74.3855
627.915,4577.04,4777.05,,627.915,5597.269,6026.39,,627.915,81.7727,0.792688,79.2688,75.7076
629.949,4444.849,4639.71,,629.949,5317.543,5729.63,,629.949,83.5884,0.809775,80.9775,77.1452
631.985,4308.071,4505.27,,631.985,5078.235,5452.72,,631.985,84.834,0.826242,82.6242,78.6647
634.021,4171.461,4365.92,,634.021,4845.814,5199.17,,634.021,86.0838,0.839735,83.9735,80.2147
636.059,4044.367,4232.64,,636.059,4614.617,4957.05,,636.059,87.6425,0.853863,85.3863,81.7701
638.098,3911.055,4099.59,,638.098,4396.936,4722.31,,638.098,88.9496,0.868134,86.8134,83.3025
640.137,3789.286,3970.1,,640.137,4190.298,4500.78,,640.137,90.43,0.882091,88.2091,84.7799
642.178,3664.202,3845.38,,642.178,3977.679,4285.8,,642.178,92.1191,0.897238,89.7238,86.2144
644.219,3524.667,3716.12,,644.219,3776.175,4074.28,,644.219,93.3396,0.912093,91.2093,87.6488
646.262,3401.431,3583.03,,646.262,3579.935,3869.46,,646.262,95.0138,0.925976,92.5976,89.0926
648.306,3284.835,3458.99,,648.306,3390.26,3668.67,,648.306,96.8904,0.942847,94.2847,90.5636
650.35,3149.409,3333.77,,650.35,3226.089,3481.54,,650.35,97.6231,0.957558,95.7558,92.0702
652.396,3013.834,3203.36,,652.396,3054.629,3304.68,,652.396,98.6645,0.969342,96.9342,93.5363
654.443,2887.035,3072.48,,654.443,2884.204,3130.37,,654.443,100.098,0.981505,98.1505,94.9417
656.49,2767.793,2944.88,,656.49,2731.414,2962.54,,656.49,101.332,0.99404,99.404,96.3139
658.539,2655.832,2822.89,,658.539,2580.731,2804.5,,658.539,102.91,1.00656,100.656,97.638
660.589,2537.382,2706.26,,660.589,2427.603,2648.13,,660.589,104.522,1.02195,102.195,98.9235
662.64,2406.031,2585.39,,662.64,2288.091,2497.08,,662.64,105.155,1.03537,103.537,100.233
664.691,2280.816,2460.09,,664.691,2164.156,2356.33,,664.691,105.391,1.04403,104.403,101.506
666.744,2175.27,2338.16,,666.744,2045.696,2226.29,,666.744,106.334,1.05025,105.025,102.668
668.798,2073.873,2227.99,,668.798,1925.154,2100.21,,668.798,107.725,1.06084,106.084,103.771
670.853,1964.588,2119.61,,670.853,1815.214,1979.64,,670.853,108.229,1.07071,107.071,104.809
672.909,1861.102,2011.69,,672.909,1715.56,1867.31,,672.909,108.484,1.07732,107.732,105.707
674.965,1760.414,1907.68,,674.965,1611.947,1762.64,,674.965,109.21,1.08228,108.228,106.489
677.023,1669.254,1806.87,,677.023,1524.155,1660.97,,677.023,109.52,1.08784,108.784,107.241
679.082,1588.86,1715.15,,679.082,1432.954,1566.48,,679.082,110.88,1.09491,109.491,107.959
681.142,1498.343,1625.86,,681.142,1354.302,1476.52,,681.142,110.636,1.10114,110.114,108.613
683.203,1410.625,1536.12,,683.203,1270.438,1392.78,,683.203,111.035,1.10292,110.292,109.158
685.265,1325.409,1448.82,,685.265,1184.315,1306.68,,685.265,111.914,1.10878,110.878,109.684
687.327,1249.408,1365.53,,687.327,1118.864,1225.41,,687.327,111.668,1.11434,111.434,110.22
689.391,1173.821,1285.15,,689.391,1065.445,1157.43,,689.391,110.172,1.11034,111.034,110.633
691.456,1108.862,1208.24,,691.456,1002.409,1093.7,,691.456,110.62,1.10472,110.472,110.783
693.522,1053.185,1141.74,,693.522,947.984,1031.78,,693.522,111.097,1.10657,110.657,110.861
695.589,989.432,1080.69,,695.589,895.937,974.024,,695.589,110.435,1.10951,110.951,110.924
697.657,934.751,1019.85,,697.657,844.05,920.439,,697.657,110.746,1.108,110.8,110.859
699.726,876.056,960.191,,699.726,793.442,867.434,,699.726,110.412,1.10693,110.693,110.735
701.796,829.146,903.212,,701.796,752.07,817.616,,701.796,110.249,1.10469,110.469,110.694
703.867,787.785,854.496,,703.867,717.422,774.53,,703.867,109.808,1.10324,110.324,110.663
705.939,739.361,808.88,,705.939,679.315,735.617,,705.939,108.839,1.09959,109.959,110.524
708.012,695.402,762.495,,708.012,636.773,694.687,,708.012,109.207,1.09761,109.761,110.319
710.085,652.659,716.52,,710.085,606.364,655.382,,710.085,107.635,1.09329,109.329,110.077
712.16,619.411,674.293,,712.16,566.369,620.068,,712.16,109.365,1.08745,108.745,109.737
714.236,586.486,637.784,,714.236,532.352,582.695,,714.236,110.169,1.09454,109.454,109.508
716.313,546.795,600.709,,716.313,505.864,550.157,,716.313,108.091,1.09189,109.189,109.35
718.391,511.533,562.136,,718.391,472.365,517.728,,718.391,108.292,1.08577,108.577,109.142
720.47,485.799,528.985,,720.47,447.827,487.368,,720.47,108.479,1.08539,108.539,108.937
722.55,452.481,498.655,,722.55,433.743,462.584,,722.55,104.32,1.07798,107.798,108.779
724.631,429.859,469.196,,724.631,409.02,440.922,,724.631,105.095,1.06413,106.413,108.339
726.713,409.206,444.512,,726.713,388.541,418.692,,726.713,105.319,1.06167,106.167,107.725
728.796,388.391,420.455,,728.796,371.186,398.504,,728.796,104.635,1.05508,105.508,107.129
730.88,366.722,398.301,,730.88,349.794,379.032,,730.88,104.839,1.05084,105.084,106.502
732.965,352.506,378.469,,732.965,336.604,360.43,,732.965,104.724,1.05005,105.005,105.868
735.051,334.558,360.502,,735.051,326.387,344.836,,735.051,102.503,1.04543,104.543,105.42
737.138,314.899,341.468,,737.138,309.643,331.615,,737.138,101.697,1.02971,102.971,104.871
739.226,306.342,324.881,,739.226,297.074,317.355,,739.226,103.12,1.02371,102.371,104.21
741.315,301.024,314.163,,741.315,293.86,307.387,,741.315,102.438,1.02204,102.204,103.634
743.405,285.746,304.729,,743.405,277.141,297.104,,743.405,103.105,1.02567,102.567,103.135
745.496,275.258,291.908,,745.496,267.722,284.507,,745.496,102.815,1.02601,102.601,102.73
747.588,261.932,279.396,,747.588,263.788,275.873,,747.588,99.2964,1.01277,101.277,102.344
749.681,251.481,267.222,,749.681,251.092,266.248,,749.681,100.155,1.00366,100.366,101.968
751.775,239.506,255.576,,751.775,245.16,256.03,,751.775,97.6938,0.998229,99.8229,101.532
753.87,229.867,244.561,,753.87,247.608,251.097,,753.87,92.835,0.973969,97.3969,100.752
755.966,219.277,234.817,,755.966,236.574,246.921,,755.966,92.6885,0.950984,95.0984,99.4183
758.063,203.121,223.718,,758.063,221.635,236.698,,758.063,91.6466,0.94516,94.516,97.9913
760.161,188.708,210.101,,760.161,205.981,223.779,,760.161,91.6143,0.938877,93.8877,96.6797
762.26,177.562,197.059,,762.26,201.861,212.771,,762.26,87.9625,0.926157,92.6157,95.3154
764.36,174.338,185.405,,764.36,202.38,207.356,,764.36,86.1439,0.89414,89.414,93.6858
766.461,179.186,181.212,,766.461,204.113,204.812,,766.461,87.7876,0.884774,88.4774,92.2364
768.562,178.679,179.548,,768.562,201.143,203.635,,768.562,88.8318,0.881712,88.1712,91.0132
770.665,173.924,178.288,,770.665,193.588,199.951,,770.665,89.8423,0.891659,89.1659,90.0056
772.769,168.088,175.457,,772.769,193.397,196.739,,772.769,86.9134,0.891826,89.1826,89.2278
774.874,158.619,169.494,,774.874,185.475,193.222,,774.874,85.5204,0.8772,87.72,88.6614
776.98,155.437,162.79,,776.98,189.418,190.42,,776.98,82.0603,0.8549,85.49,88.1559
779.087,157.456,159.626,,779.087,181.983,187.565,,779.087,86.5224,0.851047,85.1047,87.5034
781.195,152.109,157.025,,781.195,180.753,184.49,,781.195,84.153,0.851131,85.1131,86.8754
783.304,151.126,154.326,,783.304,173.935,181.758,,783.304,86.8865,0.849073,84.9073,86.0313
785.414,146.457,152.324,,785.414,167.726,177.097,,785.414,87.3192,0.860119,86.0119,85.4867
787.525,140.601,148.528,,787.525,158.788,170.284,,787.525,88.5464,0.872238,87.2238,85.4962
789.637,131.487,142.145,,789.637,156.031,163.472,,789.637,84.2698,0.86954,86.954,85.8913
791.749,134.132,138.036,,791.749,153.463,159.225,,791.749,87.4035,0.866926,86.6926,86.1586
793.863,128.571,135.573,,793.863,150.563,156.128,,793.863,85.3935,0.868346,86.8346,86.5252
795.978,128.715,132.368,,795.978,150.986,153.586,,795.978,85.2496,0.861852,86.1852,86.6908
798.094,121.259,127.99,,798.094,150.643,152.262,,798.094,80.4943,0.840591,84.0591,86.3623
800.211,118.361,123.23,,800.211,146.816,150.657,,800.211,80.6186,0.817952,81.7952,85.4405
802.329,120.059,120.918,,802.329,147.662,149.629,,802.329,81.3066,0.808119,80.8119,84.4047
804.448,120.457,119.737,,804.448,146.668,148.293,,804.448,82.129,0.807431,80.7431,83.2512
806.567,118.155,120.141,,806.567,155.107,149.196,,806.567,76.1764,0.805257,80.5257,82.1877
808.688,111.796,116.887,,808.688,147.652,150.275,,808.688,75.7159,0.77782,77.782,80.8666
810.81,119.271,116.945,,810.81,146.27,148.305,,810.81,81.5417,0.788541,78.8541,79.9693
812.933,117.527,118.267,,812.933,144.419,147.154,,812.933,81.3792,0.803695,80.3695,79.7093
815.057,112.762,116.317,,815.057,153.045,147.675,,815.057,73.679,0.787657,78.7657,79.4909
817.181,121.114,116.308,,817.181,155.736,151.328,,817.181,77.7688,0.768579,76.8579,78.766
819.307,128.282,121.082,,819.307,151.672,152.245,,819.307,84.5786,0.795311,79.5311,78.6312
821.434,132.587,125.478,,821.434,160.59,153.76,,821.434,82.5624,0.816065,81.6065,79.2586
823.562,139.651,129.865,,823.562,163.951,158.246,,823.562,85.1785,0.820656,82.0656,79.7053
825.69,147.742,136.68,,825.69,174.003,163.075,,825.69,84.9077,0.838143,83.8143,80.3149
827.82,165.237,146.908,,827.82,189.855,173.097,,827.82,87.0333,0.848705,84.8705,81.6359
829.951,178.412,159.848,,829.951,205.274,186.255,,829.951,86.9141,0.858221,85.8221,83.1326
832.082,190.562,173.208,,832.082,215.495,198.43,,832.082,88.4299,0.872896,87.2896,84.3217
834.215,188.967,182.058,,834.215,216.898,206.786,,834.215,87.1225,0.880417,88.0417,85.4785
836.349,200.539,187.35,,836.349,219.103,211.731,,836.349,91.5273,0.88485,88.485,86.4883
838.483,223.116,198.692,,838.483,241.528,220.303,,838.483,92.3769,0.901903,90.1903,87.5206
840.619,265.647,220.311,,840.619,278.337,239.836,,840.619,95.4408,0.91859,91.859,88.6703
842.755,329.428,259.934,,842.755,333.384,272.42,,842.755,98.8134,0.954166,95.4166,90.1568
844.893,398.112,314.046,,844.893,400.011,320.492,,844.893,99.5253,0.979888,97.9888,91.9795
847.032,472.366,376.037,,847.032,474.535,380.132,,847.032,99.5429,0.989227,98.9227,94.0053
849.171,553.238,446.223,,849.171,556.983,450.155,,849.171,99.3276,0.991265,99.1265,95.8718
851.312,630.856,521.52,,851.312,630.508,525.136,,851.312,100.055,0.993115,99.3115,97.4458
853.453,705.015,596.903,,853.453,703.737,599.605,,853.453,100.182,0.995493,99.5493,98.6197
855.596,777.191,671.761,,855.596,769.709,671.021,,855.596,100.972,1.0011,100.11,99.2382
857.739,842.24,745.015,,857.739,829.831,738.184,,857.739,101.495,1.00925,100.925,99.6675
859.884,900.678,811.641,,859.884,871.417,796.955,,859.884,103.358,1.01843,101.843,100.137
862.029,933.845,868.039,,862.029,905.793,845.071,,862.029,103.097,1.02718,102.718,100.774
864.175,957.744,908.335,,864.175,932.101,884.121,,864.175,102.751,1.02739,102.739,101.401
866.323,993.152,942.137,,866.323,956.712,915.345,,866.323,103.809,1.02927,102.927,101.982
868.471,1032.715,979.739,,868.471,993.127,945.857,,868.471,103.986,1.03582,103.582,102.528
870.621,1070.761,1017.01,,870.621,1031.509,979.757,,870.621,103.805,1.03803,103.803,102.987
872.771,1135.328,1060.19,,872.771,1082.553,1018.45,,872.771,104.875,1.04098,104.098,103.304
874.922,1208.757,1116.5,,874.922,1157.861,1070.42,,874.922,104.396,1.04306,104.306,103.583
877.075,1302.577,1187.23,,877.075,1234.603,1135.19,,877.075,105.506,1.04585,104.585,103.907
879.228,1393.463,1270.38,,879.228,1331.316,1211.7,,879.228,104.668,1.04843,104.843,104.213
881.382,1488.863,1359.29,,881.382,1420.587,1298.52,,881.382,104.806,1.0468,104.68,104.417
883.537,1582.327,1452.83,,883.537,1504.383,1384.85,,883.537,105.181,1.04909,104.909,104.596
885.694,1657.765,1540.32,,885.694,1575.576,1466.43,,885.694,105.216,1.05039,105.039,104.748
887.851,1709.938,1614.94,,887.851,1624.133,1535.65,,887.851,105.283,1.05164,105.164,104.887
890.009,1750.288,1675.18,,890.009,1658.197,1592.38,,890.009,105.554,1.052,105.2,104.967
892.168,1747.305,1715.62,,892.168,1654.916,1627.2,,892.168,105.583,1.05434,105.434,105.081
894.328,1705.488,1722.57,,894.328,1623.094,1635.81,,894.328,105.076,1.05304,105.304,105.198
896.489,1634.493,1697.66,,896.489,1559.063,1613.7,,896.489,104.838,1.05203,105.203,105.249
898.651,1539.937,1640.88,,898.651,1463.155,1561.85,,898.651,105.248,1.0506,105.06,105.25
900.815,1443.429,1563.86,,900.815,1371.84,1486.62,,900.815,105.218,1.05196,105.196,105.248
902.979,1332.596,1473.08,,902.979,1278.203,1404.37,,902.979,104.255,1.04893,104.893,105.195
905.144,1223.816,1372.12,,905.144,1176.028,1312.13,,905.144,104.064,1.04571,104.571,105.052
907.31,1117.362,1267.54,,907.31,1086.914,1218.25,,907.31,102.801,1.04046,104.046,104.858
909.477,1029.774,1166.33,,909.477,995.007,1125.59,,909.477,103.494,1.03619,103.619,104.59
911.644,939.255,1072.89,,911.644,906.569,1034.2,,911.644,103.605,1.03741,103.741,104.319
913.813,856.333,981.49,,913.813,837.096,949.149,,913.813,102.298,1.03407,103.407,104.017
915.983,791.319,899.031,,915.983,779.347,876.084,,915.983,101.536,1.02619,102.619,103.657
918.154,733.942,827.444,,918.154,720.052,810.915,,918.154,101.929,1.02038,102.038,103.235
920.326,682.2,764.356,,920.326,664.393,749.018,,920.326,102.68,1.02048,102.048,102.893
922.499,633.913,707.834,,922.499,626.552,695.278,,922.499,101.175,1.01806,101.806,102.565
924.673,581.808,655.855,,924.673,585.166,648.683,,924.673,99.4261,1.01106,101.106,102.133
926.847,535.157,604.451,,926.847,544.415,604.98,,926.847,98.2995,0.999125,99.9125,101.6
929.023,496.142,557.78,,929.023,503.118,561.581,,929.023,98.6134,0.993233,99.3233,101.044
931.2,451.4,513.776,,931.2,461.003,519.111,,931.2,97.9169,0.989722,98.9722,100.483
933.377,417.748,472.122,,933.377,423.069,477.983,,933.377,98.7423,0.987738,98.7738,99.8619
935.556,382.187,433.921,,935.556,394.863,441.516,,935.556,96.7898,0.982797,98.2797,99.2728
937.736,358.444,400.019,,937.736,366.565,410.534,,937.736,97.7846,0.974388,97.4388,98.7061
939.916,331.337,371.617,,939.916,346.448,382.393,,939.916,95.6383,0.971819,97.1819,98.2813
942.098,310.502,344.326,,942.098,328.331,358.575,,942.098,94.5698,0.960263,96.0263,97.7593
944.28,284.849,319.478,,944.28,309.213,337.735,,944.28,92.1206,0.945942,94.5942,97.0474
946.464,267.742,295.82,,946.464,292.368,318.275,,946.464,91.5771,0.92945,92.945,96.0575
948.648,253.088,278.602,,948.648,277.341,301.738,,948.648,91.2552,0.923326,92.3326,95.0483
950.834,244.889,263.511,,950.834,265.768,285.869,,950.834,92.1439,0.921787,92.1787,94.0553
953.02,236.508,252.493,,953.02,255.012,272.17,,953.02,92.7439,0.927703,92.7703,93.276
955.207,225.126,240.277,,955.207,249.711,262,,955.207,90.1546,0.917089,91.7089,92.6557
957.396,223.562,231.983,,957.396,236.5,252.082,,957.396,94.5294,0.920266,92.0266,92.2527
959.585,215.816,225.619,,959.585,236.106,242.885,,959.585,91.4064,0.928915,92.8915,92.2713
961.775,204.889,217.054,,961.775,229.44,237.911,,961.775,89.2996,0.912333,91.2333,92.1727
963.966,206.142,209.908,,963.966,221.773,231.494,,963.966,92.9518,0.906756,90.6756,91.831
966.159,208.123,207.785,,966.159,219.105,225.236,,966.159,94.9878,0.922521,92.2521,91.6929
968.352,199.83,206.438,,968.352,220.619,222.053,,968.352,90.577,0.929682,92.9682,91.9599
970.546,195.265,201.869,,970.546,218.496,220.446,,970.546,89.3678,0.915727,91.5727,91.8572
972.741,199.153,200.328,,972.741,219.555,220.312,,972.741,90.7076,0.909292,90.9292,91.6357
974.937,195.86,199.078,,974.937,218.158,219.266,,974.937,89.779,0.907928,90.7928,91.6713
977.134,195.748,198.42,,977.134,219.124,219.024,,977.134,89.3321,0.905931,90.5931,91.5373
979.332,201.727,197.817,,979.332,221.817,219.666,,979.332,90.943,0.900532,90.0532,91.0256
981.531,209.432,201.077,,981.531,227.964,223.572,,981.531,91.8706,0.899383,89.9383,90.5452
983.731,211.41,205.426,,983.731,233.383,227.857,,983.731,90.585,0.901558,90.1558,90.3695
985.932,214.296,209.173,,985.932,240.438,232.49,,985.932,89.1273,0.899707,89.9707,90.213
988.134,217.001,213.1,,988.134,249.583,238.987,,988.134,86.9454,0.891679,89.1679,89.9907
990.336,222.705,216.81,,990.336,255.455,246.471,,990.336,87.1797,0.879658,87.9658,89.6153
992.54,233.499,222.867,,992.54,261.962,253.353,,992.54,89.1347,0.879673,87.9673,89.2455
994.745,239.112,229.744,,994.745,274.288,260.722,,994.745,87.1755,0.881183,88.1183,88.8706
996.951,244.269,235.516,,996.951,286.612,270.187,,996.951,85.2264,0.871678,87.1678,88.3485
999.157,254.88,242.39,,999.157,293.481,280.193,,999.157,86.8472,0.86508,86.508,87.7498
1001.365,263.946,251.079,,1001.365,301.168,289.222,,1001.365,87.6408,0.868117,86.8117,87.386
1003.573,267.011,258.671,,1003.573,303.763,296.508,,1003.573,87.9011,0.872392,87.2392,87.235
1005.783,277.257,265.655,,1005.783,310.267,301.218,,1005.783,89.3608,0.881934,88.1934,87.174
1007.993,289.413,275.067,,1007.993,329.769,311.349,,1007.993,87.7623,0.883466,88.3466,87.3042
1010.205,307.022,286.38,,1010.205,350.362,326.477,,1010.205,87.6299,0.877183,87.7183,87.5106
1012.417,329.631,303.564,,1012.417,374.227,345.141,,1012.417,88.0832,0.879535,87.9535,87.7562
1014.631,346.602,321.737,,1014.631,403,368.867,,1014.631,86.0055,0.872231,87.2231,87.8558
1016.845,371.392,341.416,,1016.845,427.136,393.454,,1016.845,86.9494,0.867741,86.7741,87.7137
1019.06,393.727,362.347,,1019.06,460.817,418.868,,1019.06,85.4411,0.865062,86.5062,87.3904
1021.277,417.788,384.265,,1021.277,488.77,448.532,,1021.277,85.4774,0.856717,85.6717,86.9895
1023.494,439.212,407.76,,1023.494,508.176,474.235,,1023.494,86.4291,0.859827,85.9827,86.6144
1025.712,450.636,428.202,,1025.712,529.673,497.215,,1025.712,85.0782,0.861201,86.1201,86.3091
1027.931,466.332,444.6,,1027.931,553.986,519.436,,1027.931,84.1776,0.855928,85.5928,86.0867
1030.151,478.573,460.215,,1030.151,563.39,539.993,,1030.151,84.9452,0.852262,85.2262,85.7941
1032.372,486.632,472.349,,1032.372,575.884,555.399,,1032.372,84.5017,0.850468,85.0468,85.6079
1034.594,484.872,480.017,,1034.594,581.558,567.714,,1034.594,83.3747,0.845527,84.5527,85.4148
1036.817,481.838,481.59,,1036.817,588.232,576.536,,1036.817,81.9129,0.835317,83.5317,84.9925
1039.041,486.168,482.587,,1039.041,588.632,583.337,,1039.041,82.5929,0.827287,82.7287,84.4288
1041.266,484.315,484.165,,1041.266,590.031,586.847,,1041.266,82.083,0.825027,82.5027,83.9108
1043.492,485.007,483.617,,1043.492,586.793,588.034,,1043.492,82.6538,0.82243,82.243,83.3732
1045.718,479.88,482.597,,1045.718,596.644,589.947,,1045.718,80.4299,0.818034,81.8034,82.828
1047.946,476.843,480.174,,1047.946,593.313,592.824,,1047.946,80.3696,0.809977,80.9977,82.2658
1050.175,474.26,477.289,,1050.175,601.617,594.302,,1050.175,78.8309,0.803108,80.3108,81.7735
1052.405,462.132,472.206,,1052.405,602.011,599.239,,1052.405,76.7647,0.788009,78.8009,81.1337
1054.635,460.366,465.284,,1054.635,596.403,597.902,,1054.635,77.1904,0.778195,77.8195,80.3024
1056.867,461.326,463.39,,1056.867,592.068,595.968,,1056.867,77.9177,0.777541,77.7541,79.4726
1059.099,455.65,460.192,,1059.099,580.549,590.142,,1059.099,78.4861,0.779799,77.9799,78.8052
1061.333,449.427,456.719,,1061.333,581.393,583.967,,1061.333,77.3018,0.782098,78.2098,78.3225
1063.567,443.84,451.278,,1063.567,572.872,579.42,,1063.567,77.4763,0.778845,77.8845,77.9883
1065.802,435.252,445.156,,1065.802,567.258,573.583,,1065.802,76.7291,0.776097,77.6097,77.8782
1068.039,421.573,435.63,,1068.039,565.462,569.197,,1068.039,74.5537,0.765342,76.5342,77.72
1070.276,414.256,426.157,,1070.276,558.937,565.166,,1070.276,74.115,0.754039,75.4039,77.3184
1072.514,409.666,419.117,,1072.514,559.139,561.587,,1072.514,73.2673,0.746307,74.6307,76.6994
1074.753,408.348,413.771,,1074.753,550.884,558.469,,1074.753,74.126,0.740903,74.0903,75.9691
1076.993,407.302,410.742,,1076.993,535.083,550.983,,1076.993,76.1194,0.745471,74.5471,75.3228
1079.234,402.709,407.599,,1079.234,534.007,542.727,,1079.234,75.4127,0.75102,75.102,74.9039
1081.476,391.297,401.837,,1081.476,529.385,537.937,,1081.476,73.9154,0.746996,74.6996,74.689
1083.719,383.885,394.973,,1083.719,527.215,532.68,,1083.719,72.8137,0.741482,74.1482,74.5499
1085.963,375.108,387.551,,1085.963,520.772,529.228,,1085.963,72.0292,0.732294,73.2294,74.3962
1088.208,370.057,380.538,,1088.208,513.782,522.837,,1088.208,72.0261,0.727833,72.7833,74.1451
1090.454,363.732,373.973,,1090.454,508.245,517.41,,1090.454,71.5663,0.722779,72.2779,73.685
1092.772,353.407,366.863,,1092.772,503.615,512.319,,1092.772,70.174,0.716082,71.6082,73.0781
1094.985,345.899,358.14,,1094.985,503.075,508.097,,1094.985,68.7569,0.704865,70.4865,72.3874
1097.197,344.753,351.716,,1097.197,501.351,505.686,,1097.197,68.7648,0.695521,69.5521,71.6384
1099.409,339.607,346.892,,1099.409,492.535,500.414,,1099.409,68.9508,0.693209,69.3209,70.9576
1101.622,334.278,341.704,,1101.622,486.626,494.006,,1101.622,68.693,0.6917,69.17,70.3183
1103.834,327.22,335.727,,1103.834,478.08,487.981,,1103.834,68.4446,0.687992,68.7992,69.7363
1106.047,328.253,330.872,,1106.047,472.804,481.235,,1106.047,69.4269,0.687548,68.7548,69.2682
1108.259,318.738,327.554,,1108.259,469.89,475.543,,1108.259,67.8325,0.688799,68.8799,69.0481
1110.472,312.405,320.527,,1110.472,464.157,470.658,,1110.472,67.3059,0.68102,68.102,68.8282
1112.684,305.798,315.427,,1112.684,458.24,466.471,,1112.684,66.7332,0.676199,67.6199,68.5463
1114.897,298.371,307.651,,1114.897,439.867,458.028,,1114.897,67.8321,0.671687,67.1687,68.2169
1117.109,297.762,302.344,,1117.109,433.31,445.914,,1117.109,68.718,0.678033,67.8033,68.0138
1119.321,287.788,297.278,,1119.321,426.297,436.608,,1119.321,67.5088,0.680881,68.0881,67.8573
1121.534,283.085,291.114,,1121.534,422.645,429.973,,1121.534,66.9794,0.677052,67.7052,67.7398
1123.746,276.927,286.098,,1123.746,415.719,425.571,,1123.746,66.614,0.672267,67.2267,67.6421
1125.959,275.313,280.682,,1125.959,403.973,416.838,,1125.959,68.1513,0.673362,67.3362,67.6178
1128.171,272.062,277.09,,1128.171,398.589,409.039,,1128.171,68.2563,0.677417,67.7417,67.6595
1130.384,265.9,272.504,,1130.384,395.84,403.913,,1130.384,67.1736,0.674659,67.4659,67.5931
1132.596,252.101,265.123,,1132.596,378.543,395.556,,1132.596,66.5977,0.670254,67.0254,67.4452
1134.809,249.118,256.887,,1134.809,374.335,384.54,,1134.809,66.5495,0.668038,66.8038,67.3236
1137.021,249.771,252.718,,1137.021,371.398,379.121,,1137.021,67.2516,0.666589,66.6589,67.2336
1139.233,240.423,248.822,,1139.233,349.913,370.158,,1139.233,68.7094,0.672204,67.2204,67.1344
1141.446,229.801,241.447,,1141.446,346.154,357.45,,1141.446,66.3869,0.675471,67.5471,67.1085
1143.658,221.632,233.571,,1143.658,340.03,350.921,,1143.658,65.1801,0.665593,66.5593,67.0233
1145.871,216.917,226.568,,1145.871,331.449,342.534,,1145.871,65.4451,0.661446,66.1446,66.8817
1148.083,217.655,221.751,,1148.083,325.32,335.189,,1148.083,66.9049,0.661572,66.1572,66.7467
1150.296,213.664,219.093,,1150.296,310.099,325.84,,1150.296,68.9019,0.672397,67.2397,66.7351
1152.508,198.855,213.18,,1152.508,304.513,314.779,,1152.508,65.3026,0.677235,67.7235,66.766
1154.721,190.953,203.029,,1154.721,298.015,308.209,,1154.721,64.075,0.658741,65.8741,66.6251
1156.933,190.231,196.07,,1156.933,288.97,300.036,,1156.933,65.8307,0.653487,65.3487,66.4452
1159.145,184.6,192.128,,1159.145,283.56,294.558,,1159.145,65.1009,0.652256,65.2256,66.3084
1161.358,179.967,186.627,,1161.358,274.875,287.645,,1161.358,65.4723,0.648812,64.8812,66.0395
1163.57,173.606,181.754,,1163.57,266.734,280.18,,1163.57,65.0858,0.648704,64.8704,65.5337
1165.783,166.79,176.591,,1165.783,261.591,272.169,,1165.783,63.7598,0.648829,64.8829,65.1474
1167.995,165.79,171.398,,1167.995,257.901,265.682,,1167.995,64.2844,0.645123,64.5123,64.9709
1170.208,161.426,166.439,,1170.208,253.846,260.44,,1170.208,63.5921,0.639067,63.9067,64.7236
1172.42,156.607,161.986,,1172.42,242.062,253.921,,1172.42,64.6971,0.63794,63.794,64.457
1174.633,150.332,157.583,,1174.633,239.549,247.296,,1174.633,62.7563,0.637225,63.7225,64.238
1176.845,150.238,154.223,,1176.845,234.216,242.148,,1176.845,64.1451,0.636896,63.6896,63.9881
1179.057,149.324,152.369,,1179.057,225.701,236.343,,1179.057,66.1601,0.644694,64.4694,63.9006
1181.27,145.138,150.522,,1181.27,220.366,229.356,,1181.27,65.8622,0.656283,65.6283,64.1037
1183.482,144.405,148.292,,1183.482,216.211,224.618,,1183.482,66.7889,0.660197,66.0197,64.4973
1185.695,135.216,144.279,,1185.695,208.601,218.908,,1185.695,64.8204,0.659085,65.9085,64.9085
1187.907,133.119,138.018,,1187.907,205.99,213.488,,1187.907,64.624,0.646491,64.6491,65.1811
1190.12,132.656,135.173,,1190.12,198.65,208.843,,1190.12,66.7788,0.647246,64.7246,65.3209
1192.332,129.558,133.669,,1192.332,194.219,202.265,,1192.332,66.7072,0.660859,66.0859,65.4635
1194.545,127.367,130.65,,1194.545,193.06,197.549,,1194.545,65.9728,0.661356,66.1356,65.567
1196.757,132.359,130.196,,1196.757,191.265,194.712,,1196.757,69.2019,0.668658,66.8658,65.6643
1198.969,132.622,130.937,,1198.969,187.559,192.304,,1198.969,70.7095,0.680889,68.0889,66.1163
1201.182,135.068,132.405,,1201.182,188.127,189.623,,1201.182,71.7962,0.698251,69.8251,67.0024
1203.394,136.968,133.233,,1203.394,189.694,189.042,,1203.394,72.2047,0.704778,70.4778,67.9501
1205.607,143.504,137.202,,1205.607,193.898,190.265,,1205.607,74.01,0.721114,72.1114,68.9471
1207.819,137.95,139.51,,1207.819,189.193,191.079,,1207.819,72.915,0.730116,73.0116,70.1831
1210.032,136.578,137.39,,1210.032,182.125,187.297,,1210.032,74.9914,0.733542,73.3542,71.2711
1212.244,138.024,138.545,,1212.244,182.512,184.81,,1212.244,75.6246,0.749661,74.9661,72.3347
1214.456,129.835,136.109,,1214.456,171.173,181.129,,1214.456,75.8502,0.751448,75.1448,73.2698
1216.669,129.01,132.585,,1216.669,158.562,173.626,,1216.669,81.3625,0.763624,76.3624,74.1638
1218.881,115.277,127.333,,1218.881,149.498,164.236,,1218.881,77.1094,0.775309,77.5309,75.0646
1221.094,102.454,117.533,,1221.094,137.617,153.905,,1221.094,74.4487,0.763675,76.3675,75.7906
1223.306,94.996,108.489,,1223.306,130.102,143.31,,1223.306,73.0166,0.757026,75.7026,76.1468
1225.519,85.629,99.2866,,1225.519,112.498,132.02,,1225.519,76.116,0.752055,75.2055,76.1885
1227.731,81.083,91.2569,,1227.731,103.806,118.791,,1227.731,78.1101,0.768211,76.8211,76.3255
1229.944,77.538,85.2352,,1229.944,97.388,110.104,,1229.944,79.6176,0.774134,77.4134,76.382
1232.156,70.632,79.0136,,1232.156,86.883,100.672,,1232.156,81.2955,0.784858,78.4858,76.5725
1234.368,66.727,73.8612,,1234.368,89.199,93.3588,,1234.368,74.8069,0.791154,79.1154,77.1577
1236.581,66.733,70.2318,,1236.581,82.519,88.89,,1236.581,80.8699,0.790098,79.0098,77.7998
1238.793,63.56,67.432,,1238.793,82.296,84.0546,,1238.793,77.2334,0.80224,80.224,78.5936
1241.006,55.208,62.6406,,1241.006,74.533,80.6064,,1241.006,74.0719,0.777117,77.7117,78.8213
1242.586,47.816,58.2367,,1242.586,64.806,76.3368,,1242.586,73.7833,0.762891,76.2891,