File: public_html/data/backup/makrolon-red_324.csv
wavelength_nm,intensity,intensity_smoothed,,wavelength_nm2,intensity_i0,intensity_i0_smoothed,,wavelength_nm3,,transmission,transmission_perc,transmission_perc_smoothed
173.232,15.215,#N/A,,173.232,26.024,#N/A,,173.232,58.4653,#N/A,#N/A,#N/A
175.084,22.442,17.4925,,175.084,37.766,29.5889,,175.084,59.4238,0.591185,59.1185,#N/A
176.935,18.168,19.3871,,176.935,39.857,35.1131,,176.935,45.583,0.552132,55.2132,#N/A
178.787,18.349,19.1792,,178.787,37.584,36.6576,,178.787,48.8213,0.523198,52.3198,#N/A
180.639,15.348,18.0407,,180.639,37.128,36.8855,,180.639,41.3381,0.489099,48.9099,#N/A
182.491,22.438,18.3909,,182.491,35.582,36.7372,,182.491,63.06,0.500606,50.0606,#N/A
184.342,20.164,20.42,,184.342,43.491,38.4251,,184.342,46.3636,0.531424,53.1424,52.9258
186.194,16.89,19.5585,,186.194,45.403,41.4134,,186.194,37.2002,0.472273,47.2273,51.1728
188.046,16.253,17.6305,,188.046,44.584,44.1242,,188.046,36.4548,0.399564,39.9564,48.832
189.897,24.797,19.5483,,189.897,43.31,43.8577,,189.897,57.2547,0.445721,44.5721,47.1246
191.749,24.25,22.7543,,191.749,43.4,43.6501,,191.749,55.8756,0.521289,52.1289,47.473
193.601,19.613,22.4241,,193.601,44.945,44.6684,,193.601,43.6378,0.502014,50.2014,47.1753
195.453,20.612,20.976,,195.453,40.853,43.7579,,195.453,50.4541,0.479366,47.9366,46.7069
197.304,23.429,21.8125,,197.304,44.67,42.9419,,197.304,52.4491,0.507955,50.7955,47.8843
199.156,19.155,21.7713,,199.156,41.124,43.5822,,199.156,46.5786,0.499546,49.9546,49.7448
201.008,15.063,18.9378,,201.008,35.305,40.7299,,201.008,42.6653,0.46496,46.496,49.591
202.86,19.426,17.425,,202.86,44.395,41.25,,202.86,43.7572,0.422425,42.2425,48.0336
204.711,24.152,20.0559,,204.711,43.03,42.5105,,204.711,56.1283,0.471787,47.1787,47.4138
206.563,18.969,21.478,,206.563,41.575,41.5212,,206.563,45.626,0.517278,51.7278,47.7573
208.415,19.513,20.8182,,208.415,41.756,41.3975,,208.415,46.731,0.502885,50.2885,47.7442
210.267,12.148,17.8777,,210.267,38.119,40.5497,,210.267,31.8686,0.440883,44.0883,47.3766
212.118,18.42,15.8042,,212.118,41.481,39.618,,212.118,44.4059,0.398916,39.8916,46.6202
213.97,24.601,19.7521,,213.97,40.389,40.2939,,213.97,60.9101,0.4902,49.02,47.0518
215.822,20.599,21.2687,,215.822,34.661,38.4798,,215.822,59.4299,0.552724,55.2724,47.8217
217.673,19.507,20.4124,,217.673,41.933,38.7408,,217.673,46.5194,0.526897,52.6897,48.4171
219.525,19.597,19.8538,,219.525,44.568,41.7339,,219.525,43.971,0.475722,47.5722,48.4854
221.377,19.323,19.4651,,221.377,44.749,42.7725,,221.377,43.1809,0.455085,45.5085,49.3174
223.229,19.049,18.9781,,223.229,43.657,42.8089,,223.229,43.6333,0.443322,44.3322,49.5081
225.08,13.321,17.766,,225.08,40.566,42.6129,,225.08,32.8378,0.416916,41.6916,47.7188
226.932,16.319,16.1247,,226.932,42.474,41.5992,,226.932,38.4212,0.387619,38.7619,44.7354
228.784,21.227,16.7587,,228.784,44.291,42.036,,228.784,47.9262,0.398675,39.8675,42.6812
230.636,26.317,20.608,,230.636,42.926,42.496,,230.636,61.3078,0.484938,48.4938,42.516
232.487,21.77,22.1371,,232.487,39.743,42.2131,,232.487,54.7769,0.524413,52.4413,43.8455
234.339,22.86,21.7136,,234.339,42.197,41.7141,,234.339,54.1745,0.520533,52.0533,45.5105
236.191,22.859,22.735,,236.191,45.378,43.5585,,236.191,50.3746,0.521941,52.1941,47.8393
238.043,21.221,22.8397,,238.043,56.013,46.5648,,238.043,37.8858,0.490493,49.0493,49.9685
239.894,22.674,22.6449,,239.894,61.103,53.244,,239.894,37.1078,0.425305,42.5305,50.1039
241.746,24.582,23.3168,,241.746,58.284,56.4093,,241.746,42.1762,0.413349,41.3349,48.296
243.598,27.308,24.8951,,243.598,62.828,58.4586,,243.598,43.4647,0.42586,42.586,46.4161
245.449,33.034,26.7456,,245.449,67.464,62.2546,,245.449,48.9654,0.429616,42.9616,44.6758
247.301,32.033,29.4797,,247.301,74.008,67.0479,,247.301,43.2832,0.439682,43.9682,43.3526
249.153,31.395,29.7897,,249.153,76.462,71.9343,,249.153,41.0596,0.414123,41.4123,42.6785
251.005,32.212,30.6975,,251.005,78.824,74.4033,,251.005,40.8657,0.412583,41.2583,42.6017
252.856,33.029,30.8976,,252.856,84.096,77.687,,252.856,39.2754,0.397718,39.7718,42.2445
254.681,44.3,34.8481,,254.681,83.277,80.7354,,254.681,53.196,0.431634,43.1634,42.0396
256.513,45.299,41.467,,256.513,85.73,82.9864,,256.513,52.8391,0.499684,49.9684,42.8483
258.347,40.025,41.7539,,258.347,87.911,85.0558,,258.347,45.529,0.4909,49.09,44.1543
260.181,32.933,39.2474,,260.181,84.546,85.9536,,260.181,38.9528,0.456611,45.6611,45.1855
262.017,28.477,34.0363,,262.017,84.181,85.3776,,262.017,33.8283,0.398656,39.8656,45.3586
263.853,30.657,32.5332,,263.853,88.362,86.106,,263.853,34.6948,0.377827,37.7827,44.8737
265.691,29.292,31.6244,,265.691,92.361,87.7832,,265.691,31.7147,0.360256,36.0256,43.0225
267.53,33.745,32.0569,,267.53,91.36,89.4831,,267.53,36.9363,0.358246,35.8246,40.3033
269.369,33.198,32.8533,,269.369,92.995,90.0457,,269.369,35.6987,0.364851,36.4851,38.151
271.21,37.106,34.1069,,271.21,97.903,92.4478,,271.21,37.9008,0.368932,36.8932,36.9249
273.052,36.923,34.9998,,273.052,94.902,94.2616,,273.052,38.9065,0.371305,37.1305,36.6186
274.895,39.558,36.3696,,274.895,88.446,92.3501,,274.895,44.7256,0.393823,39.3823,36.8603
276.739,38.829,37.5008,,276.739,88.082,90.1149,,276.739,44.0828,0.416144,41.6144,37.9025
278.584,32.464,36.3304,,278.584,88.171,88.4909,,278.584,36.8194,0.410555,41.0555,38.8938
280.431,32.735,34.2852,,280.431,90.716,89.2624,,280.431,36.0851,0.384095,38.4095,39.3587
282.278,40.643,34.9908,,282.278,89.714,89.8304,,282.278,45.3029,0.389521,38.9521,39.6443
284.126,39.823,37.5062,,284.126,92.441,90.4788,,284.126,43.0794,0.41453,41.453,40.235
285.976,40.095,38.594,,285.976,93.803,91.1303,,285.976,42.7438,0.423504,42.3504,40.5145
287.826,41.366,40.3097,,287.826,92.802,91.8899,,287.826,44.5745,0.438674,43.8674,40.8275
289.678,43.819,42.3248,,289.678,89.255,90.7646,,289.678,49.0942,0.466314,46.6314,41.9239
291.531,38.817,42.6303,,291.531,92.527,90.6522,,291.531,41.9521,0.470262,47.0262,43.6139
293.385,37.634,39.6184,,293.385,90.526,91.3556,,293.385,41.5726,0.433672,43.3672,44.3984
295.239,33.269,37.2695,,295.239,91.07,90.4104,,295.239,36.5312,0.412227,41.2227,44.4123
297.095,33.995,35.765,,297.095,94.887,92.2607,,297.095,35.8268,0.387651,38.7651,43.754
298.952,35.993,35.363,,298.952,95.431,93.5602,,298.952,37.7163,0.377971,37.7971,42.4625
300.81,39.719,37.0297,,300.81,93.793,94.3954,,300.81,42.3475,0.392282,39.2282,40.8706
302.669,35.717,37.3997,,302.669,88.338,91.817,,302.669,40.4322,0.407328,40.7328,39.9316
304.53,37.443,36.6283,,304.53,89.609,89.7095,,304.53,41.7849,0.408299,40.8299,39.5585
306.391,40.351,37.8324,,306.391,88.062,89.1865,,306.391,45.8211,0.424195,42.4195,39.9103
308.253,35.531,37.7396,,308.253,93.152,90.2314,,308.253,38.143,0.418253,41.8253,40.6794
310.117,37.257,36.8055,,310.117,91.605,91.4441,,310.117,40.6714,0.402492,40.2492,41.1279
311.981,35.528,36.4162,,311.981,91.422,91.101,,311.981,38.8615,0.399735,39.9735,41.1404
313.847,29.617,34.9371,,313.847,95.33,91.2889,,313.847,31.0679,0.382709,38.2709,40.8071
315.713,31.888,32.5257,,315.713,94.329,93.5318,,315.713,33.8051,0.34775,34.775,39.6677
317.581,36.25,33.1886,,317.581,98.418,94.6417,,317.581,36.8327,0.350676,35.0676,38.1974
319.45,39.521,35.7916,,319.45,96.326,96.297,,319.45,41.0284,0.37168,37.168,37.3233
321.319,38.338,38.5207,,321.319,90.416,95.3567,,321.319,42.4018,0.403964,40.3964,37.1419
323.19,42.881,40.3123,,323.19,94.142,94.0786,,323.19,45.5493,0.428496,42.8496,37.6327
325.062,40.153,41.5927,,325.062,93.14,93.6586,,325.062,43.1104,0.444088,44.4088,39.091
326.935,38.696,40.6673,,326.935,97.503,94.264,,326.935,39.687,0.43142,43.142,40.7699
328.809,43.422,39.8843,,328.809,101.683,97.2686,,328.809,42.7033,0.410042,41.0042,41.8367
330.685,42.602,41.9891,,330.685,99.227,99.6732,,330.685,42.9339,0.421268,42.1268,42.4502
332.561,30.146,38.7067,,332.561,99.771,99.774,,332.561,30.2152,0.387943,38.7943,42.2598
334.438,31.417,34.0373,,334.438,97.679,98.6843,,334.438,32.1635,0.344911,34.4911,40.6837
336.316,34.688,33.8803,,336.316,102.496,99.0986,,336.316,33.8433,0.341885,34.1885,38.8157
338.196,45.05,36.7314,,338.196,102.131,101.62,,338.196,44.11,0.361459,36.1459,37.5604
340.076,38.23,39.2557,,340.076,99.947,101.981,,340.076,38.2503,0.38493,38.493,36.9496
341.958,35.682,37.4843,,341.958,96.491,99.8221,,341.958,36.9796,0.375511,37.5511,36.2837
343.84,40.226,38.2481,,343.84,102.49,99.8795,,343.84,39.2487,0.382943,38.2943,36.5487
345.724,42.315,39.9911,,345.724,103.579,101.973,,345.724,40.8529,0.392174,39.2174,37.4652
347.609,40.952,40.7812,,347.609,98.042,100.992,,347.609,41.7699,0.403808,40.3808,38.4697
349.495,40.131,40.7836,,349.495,106.676,101.908,,349.495,37.6195,0.4002,40.02,38.9911
351.382,41.423,40.4996,,351.382,105.402,104.69,,351.382,39.3,0.386852,38.6852,39.1336
353.269,47.737,42.8563,,353.269,105.292,104.512,,353.269,45.3377,0.41006,41.006,39.5661
355.158,44.728,44.9941,,355.158,115.346,107.968,,355.158,38.7772,0.416733,41.6733,40.1478
357.048,36.101,42.0082,,357.048,110.673,111.077,,357.048,32.6195,0.37819,37.819,40.0333
358.94,33.145,37.7628,,358.94,111.762,109.872,,358.94,29.6568,0.343699,34.3699,39.0576
360.832,39.848,36.9694,,360.832,113.053,110.748,,360.832,35.2472,0.333816,33.3816,37.9599
362.725,42.698,39.8739,,362.725,115.754,112.854,,362.725,36.8868,0.353322,35.3322,37.098
364.619,41.91,41.9294,,364.619,111.863,113.697,,364.619,37.4655,0.368781,36.8781,36.07
366.515,41.886,41.3327,,366.515,120.36,114.787,,366.515,34.8006,0.360081,36.0081,35.3495
368.411,48.271,42.7108,,368.411,120.326,118.882,,368.411,40.1168,0.359271,35.9271,35.243
370.308,41.937,44.1674,,370.308,118.77,118.855,,370.308,35.3094,0.371606,37.1606,35.8941
372.207,45.157,42.794,,372.207,125.223,119.59,,372.207,36.0613,0.357838,35.7838,36.2578
374.107,46.08,45.2361,,374.107,125.543,122.975,,374.107,36.7046,0.367847,36.7847,36.3675
376.007,44.288,45.6644,,376.007,125.651,124.338,,376.007,35.2468,0.367261,36.7261,36.3893
377.909,40.711,44.6304,,377.909,131.77,125.91,,377.909,30.8955,0.354463,35.4463,36.4141
379.812,41.367,43.075,,379.812,139.358,130.63,,379.812,29.684,0.329747,32.9747,35.814
381.716,46.91,44.158,,381.716,139.065,134.212,,381.716,33.7324,0.329016,32.9016,35.1057
383.62,46.31,46.0078,,383.62,145.735,138.843,,383.62,31.7769,0.331365,33.1365,34.5437
385.526,44.608,45.6099,,385.526,137.409,139.962,,385.526,32.4637,0.325874,32.5874,33.7677
387.433,44.217,45.2431,,387.433,141.168,139.514,,387.433,31.3223,0.324291,32.4291,33.056
389.341,37.398,41.7747,,389.341,145.868,142.1,,389.341,25.6382,0.293982,29.3982,32.3349
391.25,47.239,40.8267,,391.25,151.691,146.125,,391.25,31.1416,0.279395,27.9395,31.4696
393.161,53.864,46.3399,,393.161,160.884,150.977,,393.161,33.48,0.306934,30.6934,30.8614
395.072,55.786,50.0054,,395.072,183.671,161.883,,395.072,30.3728,0.308899,30.8899,30.5233
396.984,68.871,55.6738,,396.984,208.373,180.311,,396.984,33.0518,0.308765,30.8765,30.1974
398.897,75.817,63.7731,,398.897,246.89,204.525,,398.897,30.7088,0.31181,31.181,30.1743
400.812,99.876,76.126,,400.812,313.157,242.129,,400.812,31.8933,0.314403,31.4403,30.7119
402.727,129.767,95.7819,,402.727,415.887,302.785,,402.727,31.2025,0.316337,31.6337,31.1862
404.644,175.358,124.924,,404.644,560.653,396.039,,404.644,31.2775,0.315433,31.5433,31.2769
406.561,241.994,167.69,,406.561,774.298,531.273,,406.561,31.2533,0.315639,31.5639,31.4192
408.48,339.699,230.988,,408.48,1093.481,734.641,,408.48,31.0658,0.314423,31.4423,31.4695
410.4,475.74,320.865,,410.4,1550.196,1031.22,,410.4,30.689,0.311149,31.1149,31.4708
412.32,670.624,448.869,,412.32,2222.732,1462.76,,412.32,30.1712,0.306864,30.6864,31.323
414.242,930.24,627.436,,414.242,3163.461,2085.57,,414.242,29.4058,0.300846,30.0846,31.0828
416.165,1276.03,868.977,,416.165,4451.47,2958.03,,416.165,28.6654,0.293769,29.3769,30.7151
418.089,1708.886,1187.06,,418.089,6190.243,4157.76,,418.089,27.6061,0.285506,28.5506,30.2052
420.014,2231.831,1587.9,,420.014,8451.974,5767.44,,420.014,26.406,0.275322,27.5322,29.5506
421.939,2858.808,2079.36,,421.939,11338.22,7870.72,,421.939,25.2139,0.264189,26.4189,28.7571
423.866,3553.222,2659.4,,423.866,14858.071,10548.9,,423.866,23.9144,0.252103,25.2103,27.8326
425.795,4298.588,3313.41,,425.795,18999.297,13820.5,,425.795,22.625,0.239746,23.9746,26.799
427.724,5075.807,4025.49,,427.724,23830.084,17724.6,,427.724,21.3,0.227114,22.7114,25.6687
429.654,5846.461,4770.76,,429.654,29330.442,22281.3,,429.654,19.9331,0.214115,21.4115,24.4684
431.585,6617.265,5527.11,,431.585,35524.486,27504.1,,431.585,18.6273,0.200956,20.0956,23.2212
433.517,7381.045,6291.6,,433.517,42427.542,33418,,433.517,17.3968,0.18827,18.827,21.9496
435.451,8137.034,7051.23,,435.451,49887.621,39995.1,,435.451,16.3107,0.176302,17.6302,20.6786
437.385,8835,7802.62,,437.385,57254.674,47073.2,,437.385,15.4311,0.165755,16.5755,19.4359
439.32,9307.047,8475.46,,439.32,62514.822,53892.5,,439.32,14.8877,0.157266,15.7266,18.2623
441.257,9413.762,8957.28,,441.257,64000,58913.9,,441.257,14.709,0.15204,15.204,17.2196
443.194,9007.11,9119.1,,443.194,63674.793,61526.8,,443.194,14.1455,0.148213,14.8213,16.3471
445.133,8087.677,8847.41,,445.133,62227.685,62338.3,,445.133,12.9969,0.141926,14.1926,15.6072
447.072,6829.548,8142.72,,447.072,59293.563,61635.3,,447.072,11.5182,0.132111,13.2111,14.9161
449.013,5424.485,7098.98,,449.013,53142.307,59010.9,,449.013,10.2075,0.120299,12.0299,14.1934
450.955,4143.928,5888.81,,450.955,44477.703,53779.7,,450.955,9.31687,0.109499,10.9499,13.3932
452.897,3126.823,4705.41,,452.897,36198.569,46764.1,,452.897,8.63797,0.10062,10.062,12.4962
454.841,2368.42,3677.6,,454.841,29497.312,39472.2,,454.841,8.02927,0.0931696,9.31696,11.5397
456.786,1827.585,2847.93,,456.786,24370.579,32900.3,,456.786,7.49914,0.0865625,8.65625,10.6017
458.732,1440.345,2211.53,,458.732,20454.45,27407.8,,458.732,7.04172,0.0806898,8.06898,9.75507
460.679,1135.641,1728.09,,460.679,17336.43,22959.3,,460.679,6.5506,0.0752678,7.52678,9.02279
462.627,898.341,1356.34,,462.627,14707.613,19335.7,,462.627,6.108,0.0701469,7.01469,8.38023
464.576,722.901,1070.56,,464.576,12463.222,16334.4,,464.576,5.80027,0.0655403,6.55403,7.80235
466.526,588.543,853.66,,466.526,10551.892,13810.2,,466.526,5.57761,0.0618135,6.18135,7.28282
468.477,477.546,684.446,,468.477,9025.241,11703.9,,468.477,5.29123,0.0584802,5.84802,6.81799
470.429,395.735,553.814,,470.429,7818.333,9984.2,,470.429,5.06163,0.055469,5.5469,6.4011
472.382,333.937,453.835,,472.382,6899.26,8608.48,,472.382,4.84019,0.0527195,5.27195,6.03144
474.336,296.209,380.974,,474.336,6186.437,7525.12,,474.336,4.78804,0.050627,5.0627,5.7108
476.292,262.486,328.036,,476.292,5650.679,6682.84,,476.292,4.64521,0.0490863,4.90863,5.43923
478.248,240.073,287.699,,478.248,5248.95,6036.29,,478.248,4.57373,0.0476615,4.76615,5.2059
480.205,218.802,256.542,,480.205,4936.14,5542.55,,480.205,4.43265,0.0462859,4.62859,5.00776
482.164,216.884,235.897,,482.164,4730.842,5169.31,,482.164,4.58447,0.0456342,4.56342,4.84607
484.123,206.948,224.209,,484.123,4621.49,4909.27,,484.123,4.47795,0.0456706,4.56706,4.73192
486.083,206.003,214.021,,486.083,4648.985,4759.32,,486.083,4.43114,0.0449689,4.49689,4.64186
488.045,212.293,210.237,,488.045,4831.615,4743.7,,488.045,4.39383,0.0443192,4.43192,4.56762
490.007,215.069,211.706,,490.007,5132.308,4858.48,,490.007,4.19049,0.0435745,4.35745,4.5071
491.971,227.587,215.637,,491.971,5580.085,5109.18,,491.971,4.07856,0.0422057,4.22057,4.44559
493.936,246.114,225.971,,493.936,6134.021,5491.74,,493.936,4.01228,0.0411475,4.11475,4.36524
495.901,265.139,240.885,,495.901,6805.139,5993.71,,495.901,3.89616,0.0401897,4.01897,4.2727
497.868,282.26,257.912,,497.868,7560.527,6605.84,,497.868,3.73334,0.0390431,3.90431,4.17245
499.836,306.601,277.068,,499.836,8398.979,7313.26,,499.836,3.65046,0.0378858,3.78858,4.06028
501.804,328.443,297.897,,501.804,9288.26,8101.74,,501.804,3.53611,0.0367695,3.67695,3.94789
503.774,354.137,319.867,,503.774,10243.017,8963.53,,503.774,3.45735,0.0356854,3.56854,3.83868
505.745,378.862,344.063,,505.745,11150.964,9863.56,,505.745,3.39757,0.0348823,3.48823,3.73119
507.717,408.371,369.259,,507.717,12055.608,10765.2,,507.717,3.38739,0.0343013,3.43013,3.63106
509.69,443.554,397.984,,509.69,12973.535,11674.3,,509.69,3.41891,0.0340906,3.40906,3.54804
511.664,485.393,431.747,,511.664,13871.801,12583.8,,511.664,3.49913,0.0343097,3.43097,3.48765
513.639,538.409,472.192,,513.639,14671.604,13461.2,,513.639,3.66974,0.0350778,3.50778,3.45984
515.615,596.892,521.15,,515.615,15397.06,14281.8,,515.615,3.87666,0.0364906,3.64906,3.47375
517.592,658.685,575.167,,517.592,16069.592,15040.5,,517.592,4.09895,0.0382411,3.82411,3.53281
519.57,726.3,635.363,,519.57,16637.44,15729,,519.57,4.36546,0.0403944,4.03944,3.6382
521.549,813.397,704.779,,521.549,17143.404,16334.7,,521.549,4.74466,0.0431462,4.31462,3.79263
523.529,895.66,782.085,,523.529,17567.495,16868.9,,523.529,5.09839,0.0463625,4.63625,3.99791
525.51,992.366,865.368,,525.51,17912.017,17326.5,,525.51,5.54022,0.0499447,4.99447,4.24841
527.493,1088.179,956.285,,527.493,18129.767,17691.4,,527.493,6.00217,0.0540537,5.40537,4.54433
529.476,1197.531,1052.76,,529.476,18298.241,17965.2,,529.476,6.54451,0.0586002,5.86002,4.88726
531.46,1297.111,1154.56,,531.46,18376.976,18162.2,,531.46,7.05835,0.0635691,6.35691,5.27765
533.446,1390.69,1252.91,,533.446,18394.461,18277.2,,533.446,7.56037,0.0685503,6.85503,5.70557
535.432,1485.619,1349.72,,535.432,18380.008,18335.7,,535.432,8.0828,0.0736113,7.36113,6.16567
537.419,1577.693,1444.2,,537.419,18314.218,18342.9,,537.419,8.61458,0.0787337,7.87337,6.64977
539.408,1670.627,1537.04,,539.408,18241.306,18310.1,,539.408,9.15848,0.0839445,8.39445,7.15138
541.397,1751.028,1627.16,,541.397,18116.433,18244.7,,541.397,9.66541,0.0891851,8.91851,7.66171
543.388,1830.675,1712.39,,543.388,18010.748,18152.8,,543.388,10.1643,0.0943321,9.43321,8.17576
545.379,1922.489,1797.06,,545.379,17860.086,18041.7,,545.379,10.7642,0.0996059,9.96059,8.69337
547.372,2024.472,1888.19,,547.372,17739.367,17915.4,,547.372,11.4123,0.105395,10.5395,9.2216
549.365,2128.309,1985.33,,549.365,17602.812,17792,,549.365,12.0907,0.111586,11.1586,9.76719
551.36,2254.961,2091.42,,551.36,17418.725,17651.3,,551.36,12.9456,0.118485,11.8485,10.3394
553.356,2403.238,2213.47,,553.356,17167.843,17468.1,,553.356,13.9985,0.126715,12.6715,10.9609
555.352,2563.795,2352.24,,555.352,16964.686,17256.7,,555.352,15.1125,0.136309,13.6309,11.6599
557.35,2739.548,2505.71,,557.35,16744.941,17055.5,,557.35,16.3605,0.146915,14.6915,12.4503
559.349,2957.387,2682.92,,559.349,16493.069,16829.6,,559.349,17.9311,0.159417,15.9417,13.3524
561.348,3214.945,2889.32,,561.348,16250.673,16589.7,,561.348,19.7835,0.174163,17.4163,14.3994
563.349,3503.835,3132.27,,563.349,15993.017,16348.1,,563.349,21.9085,0.191598,19.1598,15.6209
565.351,3811.045,3402.65,,565.351,15706.557,16090.7,,565.351,24.264,0.211467,21.1467,17.0381
567.354,4152.406,3701.81,,567.354,15408.025,15816.3,,567.354,26.9496,0.234051,23.4051,18.6776
569.358,4520.508,4031.01,,569.358,15122.221,15533,,569.358,29.8931,0.259512,25.9512,20.5692
571.363,4907.974,4385.64,,571.363,14803.019,15236.5,,571.363,33.1552,0.287838,28.7838,22.7265
573.368,5321.427,4763.67,,573.368,14476.131,14927.8,,573.368,36.76,0.319113,31.9113,25.1593
575.375,5742.75,5162.45,,575.375,14137.525,14603.3,,575.375,40.6206,0.353513,35.3513,27.8756
577.383,6168.635,5574.5,,577.383,13856.848,14288,,577.383,44.5169,0.390152,39.0152,30.8784
579.392,6575.78,5989.04,,579.392,13553.915,13989.5,,579.392,48.5157,0.428109,42.8109,34.141
581.402,6977.361,6397.57,,581.402,13220.763,13677.3,,581.402,52.7758,0.467751,46.7751,37.6393
583.413,7373.087,6803.04,,583.413,12883.828,13351.8,,583.413,57.2275,0.509523,50.9523,41.3559
585.425,7740.701,7195.01,,585.425,12565.841,13024.3,,585.425,61.6011,0.552428,55.2428,45.2629
587.439,8101.199,7576.02,,587.439,12218.756,12701.1,,587.439,66.3013,0.596487,59.6487,49.3235
589.453,8399.679,7930.01,,589.453,11860.998,12358.4,,589.453,70.8176,0.641669,64.1669,53.5309
591.468,8687.207,8249.65,,591.468,11532.923,12014.7,,591.468,75.3253,0.686631,68.6631,57.8602
593.484,8889.27,8530.23,,593.484,11205.222,11680.4,,593.484,79.3315,0.730301,73.0301,62.258
595.501,9063.853,8762.61,,595.501,10855.083,11343.6,,595.501,83.4987,0.772471,77.2471,66.6593
597.519,9181.285,8951.45,,597.519,10499.447,10998.9,,597.519,87.4454,0.813849,81.3849,71.0296
599.539,9252.809,9094.78,,599.539,10162.072,10650.4,,599.539,91.0524,0.853934,85.3934,75.3202
601.559,9255.387,9185.08,,601.559,9798.777,10300.6,,601.559,94.4545,0.891699,89.1699,79.4831
603.58,9184.775,9208.76,,603.58,9459.679,9949.95,,603.58,97.0939,0.925508,92.5508,83.4673
605.602,9076.992,9169.41,,605.602,9106.042,9603.99,,605.602,99.681,0.95475,95.475,87.2142
607.626,8954.482,9091.01,,607.626,8752.966,9252.65,,607.626,102.302,0.982531,98.2531,90.701
609.65,8773.041,8975.26,,609.65,8417.211,8907.23,,609.65,104.227,1.00764,100.764,93.9073
611.675,8540.052,8810.35,,611.675,8081.183,8566.92,,611.675,105.678,1.02842,102.842,96.7938
613.702,8294.75,8606.32,,613.702,7750.473,8230.89,,613.702,107.023,1.04561,104.561,99.3356
615.729,8020.162,8377.21,,615.729,7428.717,7899.72,,615.729,107.962,1.06044,106.044,101.572
617.757,7727.988,8115.87,,617.757,7107.102,7574.24,,617.757,108.736,1.07151,107.151,103.496
619.787,7444.551,7844.15,,619.787,6777.411,7248.79,,619.787,109.844,1.08213,108.213,105.114
621.817,7120.27,7552.29,,621.817,6479.382,6926.44,,621.817,109.891,1.09036,109.036,106.465
623.849,6838.003,7253.11,,623.849,6197.39,6621.21,,623.849,110.337,1.09544,109.544,107.56
625.881,6567.306,6968.18,,625.881,5898.7,6323.7,,625.881,111.335,1.10192,110.192,108.461
627.915,6280.965,6684.55,,627.915,5597.269,6026.39,,627.915,112.215,1.10921,110.921,109.25
629.949,6004.451,6401.69,,629.949,5317.543,5729.63,,629.949,112.918,1.1173,111.73,109.987
631.985,5730.565,6123.89,,631.985,5078.235,5452.72,,631.985,112.846,1.12309,112.309,110.659
634.021,5456.322,5846.21,,634.021,4845.814,5199.17,,634.021,112.599,1.12445,112.445,111.26
636.059,5223.614,5581.98,,636.059,4614.617,4957.05,,636.059,113.197,1.12607,112.607,111.779
638.098,4969.85,5330.46,,638.098,4396.936,4722.31,,638.098,113.03,1.12878,112.878,112.221
640.137,4718.097,5073.62,,640.137,4190.298,4500.78,,640.137,112.596,1.12727,112.727,112.508
642.178,4493.142,4831.11,,642.178,3977.679,4285.8,,642.178,112.959,1.12724,112.724,112.641
644.219,4270.452,4598.12,,644.219,3776.175,4074.28,,644.219,113.089,1.12857,112.857,112.721
646.262,4061.226,4373.01,,646.262,3579.935,3869.46,,646.262,113.444,1.13013,113.013,112.81
648.306,3857.274,4157.26,,648.306,3390.26,3668.67,,648.306,113.775,1.13318,113.318,112.898
650.35,3655.585,3949.64,,650.35,3226.089,3481.54,,650.35,113.313,1.13445,113.445,113.011
652.396,3460.109,3746.12,,652.396,3054.629,3304.68,,652.396,113.274,1.13358,113.358,113.139
654.443,3275.213,3549.78,,654.443,2884.204,3130.37,,654.443,113.557,1.13398,113.398,113.251
656.49,3092.311,3358,,656.49,2731.414,2962.54,,656.49,113.213,1.13349,113.349,113.339
658.539,2941.02,3180.07,,658.539,2580.731,2804.5,,658.539,113.961,1.13392,113.392,113.382
660.589,2789.07,3016.72,,660.589,2427.603,2648.13,,660.589,114.89,1.13919,113.919,113.451
662.64,2621.533,2855.84,,662.64,2288.091,2497.08,,662.64,114.573,1.14367,114.367,113.615
664.691,2464.855,2693.31,,664.691,2164.156,2356.33,,664.691,113.895,1.14301,114.301,113.807
666.744,2328.431,2538.32,,666.744,2045.696,2226.29,,666.744,113.821,1.14016,114.016,113.941
668.798,2200.957,2397.26,,668.798,1925.154,2100.21,,668.798,114.326,1.14144,114.144,114.085
670.853,2063.938,2259.66,,670.853,1815.214,1979.64,,670.853,113.702,1.14145,114.145,114.191
672.909,1944.543,2125.63,,672.909,1715.56,1867.31,,672.909,113.347,1.13834,113.834,114.153
674.965,1828.906,2001.4,,674.965,1611.947,1762.64,,674.965,113.459,1.13545,113.545,114.007
677.023,1722.164,1884.8,,677.023,1524.155,1660.97,,677.023,112.991,1.13476,113.476,113.882
679.082,1620.054,1774.35,,679.082,1432.954,1566.48,,679.082,113.057,1.1327,113.27,113.743
681.142,1526.558,1669.87,,681.142,1354.302,1476.52,,681.142,112.719,1.13095,113.095,113.55
683.203,1432.807,1569.65,,683.203,1270.438,1392.78,,683.203,112.781,1.12699,112.699,113.317
685.265,1343.336,1474.74,,685.265,1184.315,1306.68,,685.265,113.427,1.12862,112.862,113.146
687.327,1253.76,1381.74,,687.327,1118.864,1225.41,,687.327,112.057,1.12757,112.757,113.013
689.391,1171.943,1294.24,,689.391,1065.445,1157.43,,689.391,109.996,1.1182,111.82,112.78
691.456,1107.266,1212.89,,691.456,1002.409,1093.7,,691.456,110.461,1.10898,110.898,112.385
693.522,1039.866,1141.05,,693.522,947.984,1031.78,,693.522,109.692,1.1059,110.59,111.963
695.589,977.907,1071.91,,695.589,895.937,974.024,,695.589,109.149,1.10049,110.049,111.476
697.657,922.388,1008.26,,697.657,844.05,920.439,,697.657,109.281,1.09541,109.541,110.866
699.726,875.763,951.651,,699.726,793.442,867.434,,699.726,110.375,1.09709,109.709,110.328
701.796,817.809,897.627,,701.796,752.07,817.616,,701.796,108.741,1.09786,109.786,110.04
703.867,762.948,840.963,,703.867,717.422,774.53,,703.867,106.346,1.08577,108.577,109.7
705.939,721.201,788.033,,705.939,679.315,735.617,,705.939,106.166,1.07125,107.125,109.164
708.012,681.772,741.624,,708.012,636.773,694.687,,708.012,107.067,1.06757,106.757,108.601
710.085,627.917,696.331,,710.085,606.364,655.382,,710.085,103.554,1.06248,106.248,108.028
712.16,587.045,649.874,,712.16,566.369,620.068,,712.16,103.651,1.04807,104.807,107.142
714.236,553.73,609.234,,714.236,532.352,582.695,,714.236,104.016,1.04554,104.554,106.24
716.313,509.463,568.869,,716.313,505.864,550.157,,716.313,100.711,1.03401,103.401,105.472
718.391,476.322,528.705,,718.391,472.365,517.728,,718.391,100.838,1.0212,102.12,104.62
720.47,448.323,494.84,,720.47,447.827,487.368,,720.47,100.111,1.01533,101.533,103.664
722.55,420.409,463.34,,722.55,433.743,462.584,,722.55,96.9258,1.00163,100.163,102.722
724.631,395.266,433.582,,724.631,409.02,440.922,,724.631,96.6373,0.983352,98.3352,101.61
726.713,376.937,408.671,,726.713,388.541,418.692,,726.713,97.0134,0.976066,97.6066,100.391
728.796,357.596,386.926,,728.796,371.186,398.504,,728.796,96.3388,0.970948,97.0948,99.3554
730.88,338.403,365.651,,730.88,349.794,379.032,,730.88,96.7435,0.964697,96.4697,98.3877
732.965,320.917,347.424,,732.965,336.604,360.43,,732.965,95.3396,0.963914,96.3914,97.5287
735.051,303.616,329.579,,735.051,326.387,344.836,,735.051,93.0233,0.955754,95.5754,96.8898
737.138,286.144,312.713,,737.138,309.643,331.615,,737.138,92.4109,0.942998,94.2998,96.2486
739.226,272.979,296.053,,739.226,297.074,317.355,,739.226,91.8892,0.932876,93.2876,95.5084
741.315,262.638,281.737,,741.315,293.86,307.387,,741.315,89.3752,0.916554,91.6554,94.6242
743.405,244.533,267.311,,743.405,277.141,297.104,,743.405,88.2341,0.899725,89.9725,93.4856
745.496,231.055,251.619,,745.496,267.722,284.507,,745.496,86.3041,0.884406,88.4406,92.1228
747.588,224.135,239.988,,747.588,263.788,275.873,,747.588,84.9679,0.869922,86.9922,90.7011
749.681,212.137,228.398,,749.681,251.092,266.248,,749.681,84.4858,0.857841,85.7841,89.2417
751.775,201.219,217.107,,751.775,245.16,256.03,,751.775,82.0766,0.847974,84.7974,87.8101
753.87,191.111,205.898,,753.87,247.608,251.097,,753.87,77.1829,0.819994,81.9994,86.2918
755.966,181.954,196.376,,755.966,236.574,246.921,,755.966,76.9121,0.795301,79.5301,84.5373
758.063,169.756,186.652,,758.063,221.635,236.698,,758.063,76.5926,0.788568,78.8568,82.853
760.161,146.232,171.774,,760.161,205.981,223.779,,760.161,70.993,0.767604,76.7604,81.146
762.26,142.83,156.629,,762.26,201.861,212.771,,762.26,70.7566,0.736137,73.6137,79.0504
764.36,143.726,149.349,,764.36,202.38,207.356,,764.36,71.0179,0.720256,72.0256,76.8931
766.461,147.78,146.844,,766.461,204.113,204.812,,766.461,72.4011,0.716972,71.6972,75.1797
768.562,145.094,146.579,,768.562,201.143,203.635,,768.562,72.1347,0.719813,71.9813,73.8226
770.665,138.213,144.508,,770.665,193.588,199.951,,770.665,71.3954,0.722714,72.2714,72.7072
772.769,130.81,140.017,,772.769,193.397,196.739,,772.769,67.6381,0.711688,71.1688,72.0202
774.874,128.068,134.821,,774.874,185.475,193.222,,774.874,69.0487,0.697753,69.7753,71.5195
776.98,123.379,129.764,,776.98,189.418,190.42,,776.98,65.1358,0.681464,68.1464,70.9497
779.087,115.623,123.085,,779.087,181.983,187.565,,779.087,63.5351,0.656227,65.6227,69.918
781.195,111.692,117.462,,781.195,180.753,184.49,,781.195,61.7926,0.636687,63.6687,68.4382
783.304,106.322,112.31,,783.304,173.935,181.758,,783.304,61.1274,0.61791,61.791,66.64
785.414,101.532,107.355,,785.414,167.726,177.097,,785.414,60.5344,0.606193,60.6193,64.8455
787.525,104.755,105.43,,787.525,158.788,170.284,,787.525,65.9716,0.619143,61.9143,63.3759
789.637,102.782,104.491,,789.637,156.031,163.472,,789.637,65.8728,0.639197,63.9197,62.6881
791.749,101.278,103.35,,791.749,153.463,159.225,,791.749,65.9951,0.649084,64.9084,62.6818
793.863,90.29,98.9701,,793.863,150.563,156.128,,793.863,59.9683,0.633906,63.3906,62.8954
795.978,88.851,93.7067,,795.978,150.986,153.586,,795.978,58.8472,0.610125,61.0125,62.9648
798.094,89.304,90.9592,,798.094,150.643,152.262,,798.094,59.2819,0.597385,59.7385,62.7674
800.211,82.066,88.8382,,800.211,146.816,150.657,,800.211,55.8972,0.589672,58.9672,62.0864
802.329,80.061,84.6104,,802.329,147.662,149.629,,802.329,54.2191,0.565468,56.5468,60.722
804.448,76.697,82.4081,,804.448,146.668,148.293,,804.448,52.2929,0.555711,55.5711,59.0609
806.567,81.491,80.7707,,806.567,155.107,149.196,,806.567,52.5386,0.541373,54.1373,57.5793
808.688,82.212,80.7195,,808.688,147.652,150.275,,808.688,55.6796,0.537146,53.7146,56.3256
810.81,83.1,81.2813,,810.81,146.27,148.305,,810.81,56.8127,0.548068,54.8068,55.3717
812.933,76.885,80.1904,,812.933,144.419,147.154,,812.933,53.2375,0.544942,54.4942,54.7836
815.057,77.298,78.6252,,815.057,153.045,147.675,,815.057,50.5067,0.532422,53.2422,54.3326
817.181,71.357,76.1517,,817.181,155.736,151.328,,817.181,45.8192,0.503221,50.3221,53.6478
819.307,80.065,75.3763,,819.307,151.672,152.245,,819.307,52.7883,0.495098,49.5098,52.8106
821.434,80.529,78.4294,,821.434,160.59,153.76,,821.434,50.1457,0.510076,51.0076,52.1606
823.562,79.454,80.6651,,823.562,163.951,158.246,,823.562,48.462,0.509746,50.9746,51.4092
825.69,77.118,79.9705,,825.69,174.003,163.075,,825.69,44.3199,0.490391,49.0391,50.5886
827.82,83.95,79.9147,,827.82,189.855,173.097,,827.82,44.218,0.461676,46.1676,49.5724
829.951,95.973,85.4117,,829.951,205.274,186.255,,829.951,46.7536,0.458575,45.8575,48.8717
832.082,97.761,90.8461,,832.082,215.495,198.43,,832.082,45.3658,0.457825,45.7825,48.0098
834.215,95.799,93.4936,,834.215,216.898,206.786,,834.215,44.1678,0.452127,45.2127,46.9327
836.349,92.36,92.9975,,836.349,219.103,211.731,,836.349,42.1537,0.439226,43.9226,45.8149
838.483,98.105,93.6196,,838.483,241.528,220.303,,838.483,40.6185,0.424958,42.4958,44.9419
840.619,105.376,98.5596,,840.619,278.337,239.836,,840.619,37.8591,0.410945,41.0945,44.1249
842.755,114.507,104.281,,842.755,333.384,272.42,,842.755,34.3469,0.382794,38.2794,42.8492
844.893,133.08,113.376,,844.893,400.011,320.492,,844.893,33.2691,0.353757,35.3757,41.0744
847.032,156.119,128.815,,847.032,474.535,380.132,,847.032,32.8994,0.338869,33.8869,39.0948
849.171,182.87,150.336,,849.171,556.983,450.155,,849.171,32.8322,0.333966,33.3966,37.2314
851.312,195.551,170.703,,851.312,630.508,525.136,,851.312,31.0148,0.325064,32.5064,35.5056
853.453,207.043,186.504,,853.453,703.737,599.605,,853.453,29.4205,0.311044,31.1044,33.9009
855.596,217.521,200.858,,855.596,769.709,671.021,,855.596,28.2602,0.299332,29.9332,32.6326
857.739,223.829,210.873,,857.739,829.831,738.184,,857.739,26.9728,0.285664,28.5664,31.54
859.884,225.601,217.598,,859.884,871.417,796.955,,859.884,25.889,0.273036,27.3036,30.4082
862.029,219.949,220.686,,862.029,905.793,845.071,,862.029,24.2825,0.261145,26.1145,29.152
864.175,219.197,220.816,,864.175,932.101,884.121,,864.175,23.5164,0.249757,24.9757,27.8967
866.323,220.293,221.5,,866.323,956.712,915.345,,866.323,23.0261,0.241986,24.1986,26.7235
868.471,216.316,219.352,,868.471,993.127,945.857,,868.471,21.7813,0.231908,23.1908,25.6217
870.621,221.401,218.763,,870.621,1031.509,979.757,,870.621,21.4638,0.223283,22.3283,24.5852
872.771,222.249,219.962,,872.771,1082.553,1018.45,,872.771,20.5301,0.215976,21.5976,23.6414
874.922,229.492,221.928,,874.922,1157.861,1070.42,,874.922,19.8203,0.207329,20.7329,22.7692
877.075,232.733,226.932,,877.075,1234.603,1135.19,,877.075,18.8508,0.199907,19.9907,21.9373
879.228,236.368,230.596,,879.228,1331.316,1211.7,,879.228,17.7545,0.190307,19.0307,21.092
881.382,243.841,236.183,,881.382,1420.587,1298.52,,881.382,17.1648,0.181887,18.1887,20.2658
883.537,244.859,240.298,,883.537,1504.383,1384.85,,883.537,16.2764,0.173519,17.3519,19.4263
885.694,245.349,242.41,,885.694,1575.576,1466.43,,885.694,15.572,0.165306,16.5306,18.5802
887.851,247.035,244.117,,887.851,1624.133,1535.65,,887.851,15.2103,0.158967,15.8967,17.7547
890.009,240.518,244.361,,890.009,1658.197,1592.38,,890.009,14.5048,0.153457,15.3457,16.9813
892.168,234.358,240.558,,892.168,1654.916,1627.2,,892.168,14.1613,0.147836,14.7836,16.2792
894.328,230.529,236.056,,894.328,1623.094,1635.81,,894.328,14.2031,0.144305,14.4305,15.6527
896.489,212.384,227.596,,896.489,1559.063,1613.7,,896.489,13.6225,0.14104,14.104,15.1264
898.651,195.079,214.484,,898.651,1463.155,1561.85,,898.651,13.3328,0.137326,13.7326,14.6725
900.815,178.545,200.852,,900.815,1371.84,1486.62,,900.815,13.015,0.135107,13.5107,14.2758
902.979,157.74,184.165,,902.979,1278.203,1404.37,,902.979,12.3408,0.131137,13.1137,13.927
905.144,145.383,166.35,,905.144,1176.028,1312.13,,905.144,12.3622,0.126778,12.6778,13.5791
907.31,133.706,151.583,,907.31,1086.914,1218.25,,907.31,12.3014,0.124427,12.4427,13.2391
909.477,125.684,139.067,,909.477,995.007,1125.59,,909.477,12.6315,0.123551,12.3551,12.9398
911.644,115.977,130.615,,911.644,906.569,1034.2,,911.644,12.793,0.126296,12.6296,12.7336
913.813,103.211,119.309,,913.813,837.096,949.149,,913.813,12.3296,0.125701,12.5701,12.5885
915.983,95.093,108.792,,915.983,779.347,876.084,,915.983,12.2016,0.12418,12.418,12.5018
918.154,89.883,99.6479,,918.154,720.052,810.915,,918.154,12.4828,0.122883,12.2883,12.4515
920.326,86.128,94.0783,,920.326,664.393,749.018,,920.326,12.9634,0.125602,12.5602,12.4637
922.499,79.19,88.4684,,922.499,626.552,695.278,,922.499,12.639,0.127242,12.7242,12.5045
924.673,74.889,83.1553,,924.673,585.166,648.683,,924.673,12.7979,0.128191,12.8191,12.5348
926.847,63.587,76.021,,926.847,544.415,604.98,,926.847,11.6799,0.125659,12.5659,12.5726
929.023,62.193,68.3427,,929.023,503.118,561.581,,929.023,12.3615,0.121697,12.1697,12.5547
931.2,64.254,65.8638,,931.2,461.003,519.111,,931.2,13.9379,0.126878,12.6878,12.5785
933.377,60.223,64.1024,,933.377,423.069,477.983,,933.377,14.2348,0.13411,13.411,12.6864
935.556,54.919,61.1931,,935.556,394.863,441.516,,935.556,13.9084,0.138598,13.8598,12.8715
937.736,51.251,57.9492,,937.736,366.565,410.534,,937.736,13.9814,0.141156,14.1156,13.1036
939.916,49.492,54.273,,939.916,346.448,382.393,,939.916,14.2855,0.14193,14.193,13.4486
942.098,54.277,51.7053,,942.098,328.331,358.575,,942.098,16.5312,0.144197,14.4197,13.821
944.28,51.062,52.4953,,944.28,309.213,337.735,,944.28,16.5135,0.155433,15.5433,14.2432
946.464,48.665,50.9701,,946.464,292.368,318.275,,946.464,16.6451,0.160145,16.0145,14.6788
948.648,49.267,50.1355,,948.648,277.341,301.738,,948.648,17.7641,0.166156,16.6156,15.1507
950.834,46.96,49.5919,,950.834,265.768,285.869,,950.834,17.6695,0.173478,17.3478,15.7216
953.02,42.106,46.37,,953.02,255.012,272.17,,953.02,16.5114,0.170371,17.0371,16.2914
955.207,45.706,44.5928,,955.207,249.711,262,,955.207,18.3036,0.170202,17.0202,16.6785
957.396,46.67,45.7508,,957.396,236.5,252.082,,957.396,19.7336,0.181492,18.1492,17.0652
959.585,46.36,45.8602,,959.585,236.106,242.885,,959.585,19.6352,0.188814,18.8814,17.5317
961.775,45.959,46.0556,,961.775,229.44,237.911,,961.775,20.0309,0.193583,19.3583,17.9578
963.966,42.103,45.1424,,963.966,221.773,231.494,,963.966,18.9847,0.195005,19.5005,18.3756
966.159,44.973,44.2844,,966.159,219.105,225.236,,966.159,20.5258,0.196614,19.6614,18.8645
968.352,43.57,44.593,,968.352,220.619,222.053,,968.352,19.749,0.200822,20.0822,19.3288
970.546,42.893,43.0701,,970.546,218.496,220.446,,970.546,19.631,0.195377,19.5377,19.5506
972.741,45.307,42.7817,,972.741,219.555,220.312,,972.741,20.6358,0.194187,19.4187,19.6089
974.937,40.902,42.835,,974.937,218.158,219.266,,974.937,18.7488,0.195357,19.5357,19.6277
977.134,40.132,41.3386,,977.134,219.124,219.024,,977.134,18.3147,0.18874,18.874,19.5483
979.332,45.362,42.0154,,979.332,221.817,219.666,,979.332,20.4502,0.191269,19.1269,19.3889
981.531,47.046,44.1355,,981.531,227.964,223.572,,981.531,20.6375,0.197411,19.7411,19.3391
983.731,44.001,45.2029,,983.731,233.383,227.857,,983.731,18.8536,0.198383,19.8383,19.4345
985.932,43.411,43.7515,,985.932,240.438,232.49,,985.932,18.055,0.188187,18.8187,19.3386
988.134,49.911,44.5268,,988.134,249.583,238.987,,988.134,19.9978,0.186314,18.6314,19.2133
990.336,49.682,47.2926,,990.336,255.455,246.471,,990.336,19.4484,0.191879,19.1879,19.2395
992.54,50.908,48.5274,,992.54,261.962,253.353,,992.54,19.4334,0.191541,19.1541,19.2072
994.745,56.223,50.8865,,994.745,274.288,260.722,,994.745,20.4978,0.195175,19.5175,19.1108
996.951,51.265,51.9035,,996.951,286.612,270.187,,996.951,17.8866,0.192102,19.2102,19.1159
999.157,54.306,50.727,,999.157,293.481,280.193,,999.157,18.5041,0.181043,18.1043,19.0651
1001.365,55.801,53.84,,1001.365,301.168,289.222,,1001.365,18.5282,0.186154,18.6154,18.9765
1003.573,43.386,50.6028,,1003.573,303.763,296.508,,1003.573,14.2828,0.170663,17.0663,18.6839
1005.783,46.606,47.4174,,1005.783,310.267,301.218,,1005.783,15.0213,0.157419,15.7419,18.061
1007.993,46.734,47.7341,,1007.993,329.769,311.349,,1007.993,14.1717,0.153314,15.3314,17.2938
1010.205,51.862,48.528,,1010.205,350.362,326.477,,1010.205,14.8024,0.148641,14.8641,16.5951
1012.417,49.898,49.45,,1012.417,374.227,345.141,,1012.417,13.3336,0.143275,14.3275,15.8716
1014.631,55.296,50.4637,,1014.631,403,368.867,,1014.631,13.7211,0.136807,13.6807,15.0527
1016.845,58.875,52.8194,,1016.845,427.136,393.454,,1016.845,13.7837,0.134245,13.4245,14.5154
1019.06,60.635,55.7818,,1019.06,460.817,418.868,,1019.06,13.1582,0.133173,13.3173,14.0927
1021.277,55.303,56.7948,,1021.277,488.77,448.532,,1021.277,11.3147,0.126624,12.6624,13.6898
1023.494,54.061,54.6796,,1023.494,508.176,474.235,,1023.494,10.6382,0.115301,11.5301,13.1572
1025.712,58.363,56.1818,,1025.712,529.673,497.215,,1025.712,11.0187,0.112993,11.2993,12.6483
1027.931,60.574,57.849,,1027.931,553.986,519.436,,1027.931,10.9342,0.111369,11.1369,12.1928
1030.151,59.692,59.6337,,1030.151,563.39,539.993,,1030.151,10.5951,0.110434,11.0434,11.7479
1032.372,59.355,58.8611,,1032.372,575.884,555.399,,1032.372,10.3068,0.10598,10.598,11.2985
1034.594,60.834,59.2631,,1034.594,581.558,567.714,,1034.594,10.4605,0.104389,10.4389,10.9833
1036.817,62.949,60.7753,,1036.817,588.232,576.536,,1036.817,10.7014,0.105415,10.5415,10.8214
1039.041,63.699,62.8251,,1039.041,588.632,583.337,,1039.041,10.8215,0.107699,10.7699,10.7268
1041.266,68.448,64.7126,,1041.266,590.031,586.847,,1041.266,11.6007,0.110272,11.0272,10.6939
1043.492,69.923,68.0019,,1043.492,586.793,588.034,,1043.492,11.9161,0.115643,11.5643,10.7935
1045.718,73.76,69.0519,,1045.718,596.644,589.947,,1045.718,12.3625,0.117048,11.7048,11.014
1047.946,72.596,71.5974,,1047.946,593.313,592.824,,1047.946,12.2357,0.120773,12.0773,11.2957
1050.175,70.43,71.4012,,1050.175,601.617,594.302,,1050.175,11.7068,0.120143,12.0143,11.562
1052.405,69.354,69.7503,,1052.405,602.011,599.239,,1052.405,11.5204,0.116398,11.6398,11.7371
1054.635,71.368,68.9682,,1054.635,596.403,597.902,,1054.635,11.9664,0.11535,11.535,11.7941
1056.867,72.016,70.7791,,1056.867,592.068,595.968,,1056.867,12.1635,0.118763,11.8763,11.8225
1059.099,72.3,72.3321,,1059.099,580.549,590.142,,1059.099,12.4537,0.122567,12.2567,11.8724
1061.333,73.4,73.3843,,1061.333,581.393,583.967,,1061.333,12.6249,0.125665,12.5665,11.9419
1063.567,76.589,74.4613,,1063.567,572.872,579.42,,1063.567,13.3693,0.12851,12.851,12.108
1065.802,79.141,76.4156,,1065.802,567.258,573.583,,1065.802,13.9515,0.133225,13.3225,12.411
1068.039,70.782,76.1023,,1068.039,565.462,569.197,,1068.039,12.5176,0.133701,13.3701,12.7382
1070.276,71.149,73.1624,,1070.276,558.937,565.166,,1070.276,12.7293,0.129453,12.9453,12.9296
1072.514,74.787,73.093,,1072.514,559.139,561.587,,1072.514,13.3754,0.130154,13.0154,13.0478
1074.753,77.605,74.8823,,1074.753,550.884,558.469,,1074.753,14.0874,0.134085,13.4085,13.1672
1076.993,76.694,75.746,,1076.993,535.083,550.983,,1076.993,14.3331,0.137474,13.7474,13.2821
1079.234,77.782,77.0137,,1079.234,534.007,542.727,,1079.234,14.5657,0.141901,14.1901,13.4013
1081.476,74.049,76.4925,,1081.476,529.385,537.937,,1081.476,13.9877,0.142196,14.2196,13.6059
1083.719,79.133,77.3537,,1083.719,527.215,532.68,,1083.719,15.0096,0.145216,14.5216,13.8768
1085.963,75.579,77.9222,,1085.963,520.772,529.228,,1085.963,14.5129,0.147238,14.7238,14.1609
1088.208,74.659,76.2353,,1088.208,513.782,522.837,,1088.208,14.5313,0.145811,14.5811,14.3602
1090.454,75.919,74.8376,,1090.454,508.245,517.41,,1090.454,14.9375,0.144639,14.4639,14.4578
1092.772,81.087,77.8872,,1092.772,503.615,512.319,,1092.772,16.101,0.152029,15.2029,14.5919
1094.985,71.434,77.4417,,1094.985,503.075,508.097,,1094.985,14.1995,0.152415,15.2415,14.7885
1097.197,78.416,75.6933,,1097.197,501.351,505.686,,1097.197,15.6409,0.149684,14.9684,14.8567
1099.409,85.123,79.8712,,1099.409,492.535,500.414,,1099.409,17.2826,0.15961,15.961,15.0418
1101.622,75.374,80.6172,,1101.622,486.626,494.006,,1101.622,15.4891,0.163191,16.3191,15.3857
1103.834,74.804,77.9286,,1103.834,478.08,487.981,,1103.834,15.6468,0.159696,15.9696,15.6356
1106.047,76.05,76.976,,1106.047,472.804,481.235,,1106.047,16.0849,0.159955,15.9955,15.75
1108.259,80.386,77.4052,,1108.259,469.89,475.543,,1108.259,17.1074,0.162772,16.2772,15.962
1110.472,86.264,80.066,,1110.472,464.157,470.658,,1110.472,18.5851,0.170115,17.0115,16.2305
1112.684,87.323,83.1343,,1112.684,458.24,466.471,,1112.684,19.0562,0.17822,17.822,16.4931
1114.897,83.833,83.4852,,1114.897,439.867,458.028,,1114.897,19.0587,0.182271,18.2271,16.8757
1117.109,85.16,83.5973,,1117.109,433.31,445.914,,1117.109,19.6534,0.187474,18.7474,17.3811
1119.321,83.393,84.4305,,1119.321,426.297,436.608,,1119.321,19.5622,0.193378,19.3378,17.9649
1121.534,87.079,84.7449,,1121.534,422.645,429.973,,1121.534,20.6033,0.197094,19.7094,18.5404
1123.746,88.49,85.9426,,1123.746,415.719,425.571,,1123.746,21.286,0.201946,20.1946,19.0455
1125.959,88.626,87.3031,,1125.959,403.973,416.838,,1125.959,21.9386,0.209441,20.9441,19.5527
1128.171,92.123,88.4317,,1128.171,398.589,409.039,,1128.171,23.1123,0.216194,21.6194,20.1188
1130.384,91.345,90.1717,,1130.384,395.84,403.913,,1130.384,23.0762,0.223245,22.3245,20.7239
1132.596,82.838,88.5693,,1132.596,378.543,395.556,,1132.596,21.8834,0.223911,22.3911,21.2837
1134.809,93.691,88.9725,,1134.809,374.335,384.54,,1134.809,25.0287,0.231374,23.1374,21.8293
1137.021,89.997,91.0164,,1137.021,371.398,379.121,,1137.021,24.232,0.240072,24.0072,22.4524
1139.233,94.119,90.6186,,1139.233,349.913,370.158,,1139.233,26.8978,0.24481,24.481,23.0281
1141.446,96.966,93.4786,,1141.446,346.154,357.45,,1141.446,28.0124,0.261515,26.1515,23.719
1143.658,100.81,96.8473,,1143.658,340.03,350.921,,1143.658,29.6474,0.27598,27.598,24.6185
1145.871,104.834,99.4207,,1145.871,331.449,342.534,,1145.871,31.629,0.29025,29.025,25.7667
1148.083,107.401,102.917,,1148.083,325.32,335.189,,1148.083,33.014,0.307042,30.7042,27.0178
1150.296,109.511,106.396,,1150.296,310.099,325.84,,1150.296,35.3149,0.32653,32.653,28.5129
1152.508,112.345,108.681,,1152.508,304.513,314.779,,1152.508,36.8933,0.345259,34.5259,30.1675
1154.721,114.269,110.993,,1154.721,298.015,308.209,,1154.721,38.3434,0.360123,36.0123,31.8403
1156.933,115.917,111.947,,1156.933,288.97,300.036,,1156.933,40.1139,0.373113,37.3113,33.493
1159.145,119.109,114.419,,1159.145,283.56,294.558,,1159.145,42.0049,0.388444,38.8444,35.1432
1161.358,119.48,116.706,,1161.358,274.875,287.645,,1161.358,43.467,0.405731,40.5731,36.7791
1163.57,120.667,118.233,,1163.57,266.734,280.18,,1163.57,45.2387,0.421989,42.1989,38.375
1165.783,119.034,118.752,,1165.783,261.591,272.169,,1165.783,45.5039,0.436316,43.6316,39.9106
1167.995,119.126,118.943,,1167.995,257.901,265.682,,1167.995,46.1906,0.447688,44.7688,41.4087
1170.208,118.489,119.393,,1170.208,253.846,260.44,,1170.208,46.6775,0.458428,45.8428,42.8261
1172.42,119.486,118.872,,1172.42,242.062,253.921,,1172.42,49.3617,0.468148,46.8148,44.1213
1174.633,123.3,120.204,,1174.633,239.549,247.296,,1174.633,51.4717,0.486072,48.6072,45.3937
1176.845,124.93,122.049,,1176.845,234.216,242.148,,1176.845,53.3397,0.504028,50.4028,46.7191
1179.057,131.103,124.84,,1179.057,225.701,236.343,,1179.057,58.087,0.528217,52.8217,48.2177
1181.27,125.184,126.99,,1181.27,220.366,229.356,,1181.27,56.8073,0.553682,55.3682,50.0241
1183.482,129.718,126.657,,1183.482,216.211,224.618,,1183.482,59.996,0.563878,56.3878,51.8894
1185.695,127.16,128.064,,1185.695,208.601,218.908,,1185.695,60.9585,0.585014,58.5014,53.8289
1187.907,127.783,126.499,,1187.907,205.99,213.488,,1187.907,62.0336,0.592533,59.2533,55.6599
1190.12,122.586,124.973,,1190.12,198.65,208.843,,1190.12,61.7095,0.598406,59.8406,57.2659
1192.332,121.388,122.599,,1192.332,194.219,202.265,,1192.332,62.5006,0.606133,60.6133,58.4853
1194.545,117.826,121.301,,1194.545,193.06,197.549,,1194.545,61.0308,0.614028,61.4028,59.5492
1196.757,119.899,120.364,,1196.757,191.265,194.712,,1196.757,62.6874,0.618166,61.8166,60.389
1198.969,111.245,118.876,,1198.969,187.559,192.304,,1198.969,59.312,0.618167,61.8167,60.9751
1201.182,106.408,113.712,,1201.182,188.127,189.623,,1201.182,56.5618,0.599673,59.9673,61.1215
1203.394,104.208,109.388,,1203.394,189.694,189.042,,1203.394,54.9348,0.578642,57.8642,60.76
1205.607,103.099,106.123,,1205.607,193.898,190.265,,1205.607,53.1718,0.557766,55.7766,59.8411
1207.819,104.082,104.209,,1207.819,189.193,191.079,,1207.819,55.0137,0.545371,54.5371,58.5679
1210.032,100.701,103.318,,1210.032,182.125,187.297,,1210.032,55.2922,0.551626,55.1626,57.2287
1212.244,98.049,101.193,,1212.244,182.512,184.81,,1212.244,53.7219,0.547555,54.7555,56.0839
1214.456,97.397,100.436,,1214.456,171.173,181.129,,1214.456,56.8997,0.554501,55.4501,55.3499
1216.669,84.293,96.0166,,1216.669,158.562,173.626,,1216.669,53.1609,0.553009,55.3009,55.0841
1218.881,81.281,88.7206,,1218.881,149.498,164.236,,1218.881,54.3693,0.540203,54.0203,54.9129
1221.094,79.453,85.2063,,1221.094,137.617,153.905,,1221.094,57.7349,0.553629,55.3629,54.9374
1223.306,79.446,81.4582,,1223.306,130.102,143.31,,1223.306,61.0644,0.568406,56.8406,55.1735
1225.519,77.441,80.3897,,1225.519,112.498,132.02,,1225.519,68.8377,0.608918,60.8918,56.068
1227.731,69.621,75.7226,,1227.731,103.806,118.791,,1227.731,67.0684,0.637442,63.7442,57.5052
1229.944,67.531,71.8405,,1229.944,97.388,110.104,,1229.944,69.3422,0.652479,65.2479,59.4433
1232.156,64.263,69.0171,,1232.156,86.883,100.672,,1232.156,73.965,0.685561,68.5561,61.9267
1234.368,50.272,63.1939,,1234.368,89.199,93.3588,,1234.368,56.3594,0.676892,67.6892,64.3194
1236.581,52.739,56.7784,,1236.581,82.519,88.89,,1236.581,63.9113,0.638749,63.8749,65.4828
1238.793,50.12,53.7368,,1238.793,82.296,84.0546,,1238.793,60.9021,0.639309,63.9309,65.7791
1241.006,49.143,50.3503,,1241.006,74.533,80.6064,,1241.006,65.9346,0.624645,62.4645,65.4482
1242.586,48.132,49.4229,,1242.586,64.806,76.3368,,1242.586,74.2709,0.647432,64.7432,