File: public_html/data/backup/makrolon-turkish_blue_543.csv
wavelength_nm,intensity,intensity_smoothed,,wavelength_nm2,intensity_i0,intensity_i0_smoothed,,wavelength_nm3,,transmission,transmission_perc,transmission_perc_smoothed
173.232,14.62,#N/A,,173.232,26.024,#N/A,,173.232,56.1789,#N/A,#N/A,#N/A
175.084,21.241,16.1533,,175.084,37.766,29.5889,,175.084,56.2437,0.545925,54.5925,#N/A
176.935,23.512,19.3957,,176.935,39.857,35.1131,,176.935,58.9909,0.552378,55.2378,#N/A
178.787,23.603,20.0543,,178.787,37.584,36.6576,,178.787,62.8007,0.547071,54.7071,#N/A
180.639,24.693,21.279,,180.639,37.128,36.8855,,180.639,66.5078,0.576893,57.6893,#N/A
182.491,25.146,23.1008,,182.491,35.582,36.7372,,182.491,70.6706,0.628813,62.8813,#N/A
184.342,19.691,22.8854,,184.342,43.491,38.4251,,184.342,45.276,0.595584,59.5584,57.9616
186.194,22.327,21.9822,,186.194,45.403,41.4134,,186.194,49.1752,0.530799,53.0799,57.8996
188.046,22.508,22.4836,,188.046,44.584,44.1242,,188.046,50.4845,0.509553,50.9553,57.2056
189.897,25.961,23.2301,,189.897,43.31,43.8577,,189.897,59.9423,0.529669,52.9669,56.5398
191.749,23.142,24.2717,,191.749,43.4,43.6501,,191.749,53.3226,0.556051,55.6051,55.505
193.601,22.232,22.7679,,193.601,44.945,44.6684,,193.601,49.4649,0.509709,50.9709,53.531
195.453,20.868,22.243,,195.453,40.853,43.7579,,195.453,51.0807,0.50832,50.832,52.5375
197.304,19.322,21.8439,,197.304,44.67,42.9419,,197.304,43.255,0.508684,50.8684,52.3334
199.156,21.048,21.1967,,199.156,41.124,43.5822,,199.156,51.1818,0.486362,48.6362,51.7575
201.008,30.502,23.5964,,201.008,35.305,40.7299,,201.008,86.3957,0.57934,57.934,51.6397
202.86,26.046,26.2714,,202.86,44.395,41.25,,202.86,58.6688,0.636883,63.6883,53.4476
204.711,23.682,25.3401,,204.711,43.03,42.5105,,204.711,55.036,0.596091,59.6091,55.3147
206.563,24.499,25.0014,,206.563,41.575,41.5212,,206.563,58.9272,0.602134,60.2134,56.886
208.415,25.226,24.2688,,208.415,41.756,41.3975,,208.415,60.4129,0.586239,58.6239,58.7965
210.267,22.043,23.7683,,210.267,38.119,40.5497,,210.267,57.8268,0.586151,58.6151,60.2342
212.118,21.497,22.3418,,212.118,41.481,39.618,,212.118,51.8237,0.563932,56.3932,59.4035
213.97,16.95,21.6675,,213.97,40.389,40.2939,,213.97,41.9669,0.537737,53.7737,58.087
215.822,19.495,19.9288,,215.822,34.661,38.4798,,215.822,56.2448,0.517903,51.7903,56.7277
217.673,25.767,21.5396,,217.673,41.933,38.7408,,217.673,61.448,0.555991,55.5991,55.7535
219.525,26.311,23.5886,,219.525,44.568,41.7339,,219.525,59.0356,0.565214,56.5214,55.4032
221.377,22.765,24.375,,221.377,44.749,42.7725,,221.377,50.8726,0.569875,56.9875,55.126
223.229,21.128,23.4043,,223.229,43.657,42.8089,,223.229,48.3954,0.546715,54.6715,55.0329
225.08,23.4,22.8106,,225.08,40.566,42.6129,,225.08,57.6838,0.535298,53.5298,55.2085
226.932,25.399,24.162,,226.932,42.474,41.5992,,226.932,59.7989,0.580829,58.0829,55.8288
228.784,22.034,23.5216,,228.784,44.291,42.036,,228.784,49.7483,0.559558,55.9558,55.9385
230.636,18.67,21.4546,,230.636,42.926,42.496,,230.636,43.4935,0.504861,50.4861,55.0224
232.487,18.214,20.1621,,232.487,39.743,42.2131,,232.487,45.8295,0.477627,47.7627,53.6188
234.339,25.304,21.9229,,234.339,42.197,41.7141,,234.339,59.9663,0.525552,52.5552,53.0417
236.191,26.303,24.8777,,236.191,45.378,43.5585,,236.191,57.9642,0.571132,57.1132,53.1772
238.043,21.484,23.6613,,238.043,56.013,46.5648,,238.043,38.3554,0.508137,50.8137,52.2892
239.894,25.301,22.7044,,239.894,61.103,53.244,,239.894,41.4071,0.426422,42.6422,50.5271
241.746,28.482,24.4111,,241.746,58.284,56.4093,,241.746,48.8676,0.432749,43.2749,49.3186
243.598,29.208,25.8202,,243.598,62.828,58.4586,,243.598,46.4888,0.441683,44.1683,48.4554
245.449,26.48,26.454,,245.449,67.464,62.2546,,245.449,39.2506,0.424932,42.4932,46.3073
247.301,30.206,27.5605,,247.301,74.008,67.0479,,247.301,40.8145,0.411057,41.1057,43.6783
249.153,27.478,28.5224,,249.153,76.462,71.9343,,249.153,35.9368,0.396506,39.6506,42.5059
251.005,28.841,29.1534,,251.005,78.824,74.4033,,251.005,36.5891,0.391829,39.1829,41.8584
252.856,26.476,29.5067,,252.856,84.096,77.687,,252.856,31.4831,0.379816,37.9816,40.7635
254.681,26.384,28.2522,,254.681,83.277,80.7354,,254.681,31.6822,0.349936,34.9936,39.1368
256.513,31.383,28.5992,,256.513,85.73,82.9864,,256.513,36.6068,0.344625,34.4625,37.726
258.347,34.382,30.8022,,258.347,87.911,85.0558,,258.347,39.11,0.362141,36.2141,36.7594
260.181,31.381,32.476,,260.181,84.546,85.9536,,260.181,37.1171,0.377832,37.7832,36.4287
262.017,24.562,29.4179,,262.017,84.181,85.3776,,262.017,29.1776,0.344562,34.4562,35.8438
263.853,33.925,28.5924,,263.853,88.362,86.106,,263.853,38.3932,0.33206,33.206,35.2513
265.691,36.924,32.5827,,265.691,92.361,87.7832,,265.691,39.9779,0.371172,37.1172,35.5572
267.53,30.014,33.4208,,267.53,91.36,89.4831,,267.53,32.8525,0.373487,37.3487,36.0353
269.369,27.922,31.5614,,269.369,92.995,90.0457,,269.369,30.0253,0.350504,35.0504,35.7621
271.21,30.466,30.9474,,271.21,97.903,92.4478,,271.21,31.1186,0.334755,33.4755,35.2088
273.052,36.01,31.7447,,273.052,94.902,94.2616,,273.052,37.9444,0.336772,33.6772,35.1969
274.895,32.918,33.6446,,274.895,88.446,92.3501,,274.895,37.2182,0.364316,36.4316,35.3123
276.739,31.826,32.0577,,276.739,88.082,90.1149,,276.739,36.1322,0.355742,35.5742,34.9508
278.584,37.644,34.0756,,278.584,88.171,88.4909,,278.584,42.6943,0.385075,38.5075,35.1458
280.431,33.461,34.5228,,280.431,90.716,89.2624,,280.431,36.8854,0.386756,38.6756,36.0537
282.278,33.55,34.2395,,282.278,89.714,89.8304,,282.278,37.3966,0.381158,38.1158,37.0218
284.126,31.64,33.3186,,284.126,92.441,90.4788,,284.126,34.2272,0.368248,36.8248,37.4662
285.976,30.639,32.3304,,285.976,93.803,91.1303,,285.976,32.6631,0.354771,35.4771,37.4136
287.826,30.729,31.3906,,287.826,92.802,91.8899,,287.826,33.1124,0.341611,34.1611,37.0215
289.678,35.728,32.3473,,289.678,89.255,90.7646,,289.678,40.0291,0.356387,35.6387,36.2731
291.531,33.454,33.231,,291.531,92.527,90.6522,,291.531,36.1559,0.366577,36.6577,35.9166
293.385,33.907,33.096,,293.385,90.526,91.3556,,293.385,37.4555,0.362277,36.2277,35.6999
295.239,28.452,32.6482,,295.239,91.07,90.4104,,295.239,31.2419,0.361111,36.1111,35.7406
297.095,25.996,30.9865,,297.095,94.887,92.2607,,297.095,27.3968,0.335858,33.5858,35.6476
298.952,29.359,29.6632,,298.952,95.431,93.5602,,298.952,30.7646,0.31705,31.705,35.1565
300.81,31.266,30.6876,,300.81,93.793,94.3954,,300.81,33.3351,0.325096,32.5096,34.3896
302.669,26.993,29.8379,,302.669,88.338,91.817,,302.669,30.5565,0.324971,32.4971,33.6432
304.53,28.446,28.8159,,304.53,89.609,89.7095,,304.53,31.7446,0.321213,32.1213,32.7807
306.391,30.263,29.2046,,306.391,88.062,89.1865,,306.391,34.3656,0.327455,32.7455,32.2915
308.253,29.08,28.8146,,308.253,93.152,90.2314,,308.253,31.2178,0.319342,31.9342,32.2755
310.117,26.352,27.8563,,310.117,91.605,91.4441,,310.117,28.767,0.304627,30.4627,32.0789
311.981,27.987,27.7294,,311.981,91.422,91.101,,311.981,30.613,0.30438,30.438,31.6472
313.847,32.713,30.1539,,313.847,95.33,91.2889,,313.847,34.3155,0.330313,33.0313,31.6683
315.713,31.621,32.5404,,315.713,94.329,93.5318,,315.713,33.522,0.347907,34.7907,32.0586
317.581,32.438,33.7191,,317.581,98.418,94.6417,,317.581,32.9594,0.356282,35.6282,32.553
319.45,31.891,33.323,,319.45,96.326,96.297,,319.45,33.1074,0.346044,34.6044,33.184
321.319,36.162,34.3443,,321.319,90.416,95.3567,,321.319,39.9951,0.360167,36.0167,34.1003
323.19,20.578,31.2028,,323.19,94.142,94.0786,,323.19,21.8585,0.331667,33.1667,34.7626
325.062,17.85,25.4997,,325.062,93.14,93.6586,,325.062,19.1647,0.272262,27.2262,33.8073
326.935,21.759,22.198,,326.935,97.503,94.264,,326.935,22.3162,0.235487,23.5487,31.7687
328.809,22.85,23.0258,,328.809,101.683,97.2686,,328.809,22.4718,0.236724,23.6724,29.6551
330.685,24.304,23.7473,,330.685,99.227,99.6732,,330.685,24.4933,0.238251,23.8251,27.5604
332.561,26.849,25.4661,,332.561,99.771,99.774,,332.561,26.9106,0.255238,25.5238,25.4818
334.438,23.213,24.8575,,334.438,97.679,98.6843,,334.438,23.7646,0.251889,25.1889,24.5244
336.316,24.394,24.3687,,336.316,102.496,99.0986,,336.316,23.8,0.245904,24.5904,24.4294
338.196,26.757,25.5582,,338.196,102.131,101.62,,338.196,26.1987,0.251507,25.1507,24.6525
340.076,23.03,24.9332,,340.076,99.947,101.981,,340.076,23.0422,0.244488,24.4488,24.8518
341.958,26.939,24.2459,,341.958,96.491,99.8221,,341.958,27.9187,0.242891,24.2891,24.7837
343.84,25.211,24.8617,,343.84,102.49,99.8795,,343.84,24.5985,0.248917,24.8917,24.6806
345.724,23.575,23.7932,,345.724,103.579,101.973,,345.724,22.7604,0.233328,23.3328,24.5102
347.609,22.758,23.3695,,347.609,98.042,100.992,,347.609,23.2125,0.2314,23.14,24.2523
349.495,25.121,23.6103,,349.495,106.676,101.908,,349.495,23.5489,0.231682,23.1682,23.9324
351.382,24.392,25.3012,,351.382,105.402,104.69,,351.382,23.1419,0.241677,24.1677,23.8732
353.269,22.652,25.0223,,353.269,105.292,104.512,,353.269,21.5135,0.23942,23.942,23.719
355.158,25.225,24.8586,,355.158,115.346,107.968,,355.158,21.869,0.230239,23.0239,23.4952
357.048,23.603,25.3013,,357.048,110.673,111.077,,357.048,21.3268,0.227782,22.7782,23.3806
358.94,20.859,22.6783,,358.94,111.762,109.872,,358.94,18.6638,0.206407,20.6407,22.9998
360.832,25.162,22.8472,,360.832,113.053,110.748,,360.832,22.2568,0.2063,20.63,22.3944
362.725,25.243,24.0862,,362.725,115.754,112.854,,362.725,21.8075,0.213427,21.3427,21.8599
364.619,26.575,24.8991,,364.619,111.863,113.697,,364.619,23.7567,0.218995,21.8995,21.5376
366.515,26.724,25.259,,366.515,120.36,114.787,,366.515,22.2034,0.220051,22.0051,21.4013
368.411,30.376,26.8973,,368.411,120.326,118.882,,368.411,25.2448,0.226253,22.6253,21.5323
370.308,24.061,27.3619,,370.308,118.77,118.855,,370.308,20.2585,0.230212,23.0212,22.0549
372.207,26.624,26.9081,,372.207,125.223,119.59,,372.207,21.2613,0.225002,22.5002,22.344
374.107,26.421,26.6751,,374.107,125.543,122.975,,374.107,21.0454,0.216914,21.6914,22.4211
376.007,31.815,27.7452,,376.007,125.651,124.338,,376.007,25.3201,0.223144,22.3144,22.3906
377.909,34.877,30.8056,,377.909,131.77,125.91,,377.909,26.4681,0.244664,24.4664,22.6729
379.812,35.599,32.8703,,379.812,139.358,130.63,,379.812,25.545,0.251629,25.1629,23.0621
381.716,29.391,31.7259,,381.716,139.065,134.212,,381.716,21.1347,0.236386,23.6386,23.3468
383.62,32.671,31.0317,,383.62,145.735,138.843,,383.62,22.4181,0.223502,22.3502,23.4264
385.526,31.113,31.1773,,385.526,137.409,139.962,,385.526,22.6426,0.222755,22.2755,23.5369
387.433,31.767,31.4667,,387.433,141.168,139.514,,387.433,22.503,0.225545,22.5545,23.4094
389.341,25.223,29.5376,,389.341,145.868,142.1,,389.341,17.2917,0.207866,20.7866,22.7659
391.25,29.235,28.6293,,391.25,151.691,146.125,,391.25,19.2727,0.195923,19.5923,21.8371
393.161,28.88,28.5808,,393.161,160.884,150.977,,393.161,17.9508,0.189306,18.9306,21.1361
395.072,35.158,30.8828,,395.072,183.671,161.883,,395.072,19.1418,0.190773,19.0773,20.4974
396.984,41.833,34.7625,,396.984,208.373,180.311,,396.984,20.076,0.192792,19.2792,19.8764
398.897,52.884,40.6157,,398.897,246.89,204.525,,398.897,21.4201,0.198585,19.8585,19.4354
400.812,68.817,49.9032,,400.812,313.157,242.129,,400.812,21.9752,0.206102,20.6102,19.5039
402.727,88.358,64.2452,,402.727,415.887,302.785,,402.727,21.2457,0.212181,21.2181,19.8281
404.644,126.442,85.9787,,404.644,560.653,396.039,,404.644,22.5526,0.217096,21.7096,20.3265
406.561,176.297,119.04,,406.561,774.298,531.273,,406.561,22.7686,0.224065,22.4065,20.917
408.48,257.445,169.077,,408.48,1093.481,734.641,,408.48,23.5436,0.230149,23.0149,21.5381
410.4,373.158,242.749,,410.4,1550.196,1031.22,,410.4,24.0717,0.235399,23.5399,22.1276
412.32,538.525,351.425,,412.32,2222.732,1462.76,,412.32,24.2281,0.240247,24.0247,22.6771
414.242,760.07,503.01,,414.242,3163.461,2085.57,,414.242,24.0265,0.241186,24.1186,23.1965
416.165,1060.829,709.923,,416.165,4451.47,2958.03,,416.165,23.831,0.239999,23.9999,23.5802
418.089,1462.259,988.836,,418.089,6190.243,4157.76,,418.089,23.622,0.237829,23.7829,23.8121
420.014,2040.246,1373.41,,420.014,8451.974,5767.44,,420.014,24.1393,0.238132,23.8132,23.9179
421.939,2866.858,1921.29,,421.939,11338.22,7870.72,,421.939,25.2849,0.244106,24.4106,24.0007
423.866,3928.343,2674.48,,423.866,14858.071,10548.9,,423.866,26.4391,0.253533,25.3533,24.1845
425.795,5221.395,3645.52,,425.795,18999.297,13820.5,,425.795,27.482,0.263776,26.3776,24.5647
427.724,6807.97,4855.93,,427.724,23830.084,17724.6,,427.724,28.5688,0.273966,27.3966,25.1685
429.654,8805.68,6361.91,,429.654,29330.442,22281.3,,429.654,30.0223,0.285526,28.5526,26.0099
431.585,11446.146,8276.92,,431.585,35524.486,27504.1,,431.585,32.2204,0.300934,30.0934,27.0689
433.517,14866.709,10765.3,,433.517,42427.542,33418,,433.517,35.0402,0.322142,32.2142,28.351
435.451,18870.532,13901.6,,435.451,49887.621,39995.1,,435.451,37.8261,0.347582,34.7582,29.9071
437.385,23005.612,17552.2,,437.385,57254.674,47073.2,,437.385,40.1812,0.372871,37.2871,31.7542
439.32,26640.668,21360,,439.32,62514.822,53892.5,,439.32,42.615,0.396345,39.6345,33.8539
441.257,28986.641,24790.9,,441.257,64000,58913.9,,441.257,45.2916,0.420799,42.0799,36.1631
443.194,29365.106,27174.2,,443.194,63674.793,61526.8,,443.194,46.1173,0.441664,44.1664,38.5609
445.133,27771.368,27985.4,,445.133,62227.685,62338.3,,445.133,44.6286,0.448928,44.8928,40.7357
447.072,24857.015,27174.1,,447.072,59293.563,61635.3,,447.072,41.9219,0.440885,44.0885,42.3521
449.013,21393.376,25082.6,,449.013,53142.307,59010.9,,449.013,40.2568,0.42505,42.505,43.2343
450.955,18209.395,22321.5,,450.955,44477.703,53779.7,,450.955,40.9405,0.415055,41.5055,43.4332
452.897,15696.5,19502.2,,452.897,36198.569,46764.1,,452.897,43.3622,0.417033,41.7033,43.1527
454.841,13946.823,17042.3,,454.841,29497.312,39472.2,,454.841,47.2817,0.431754,43.1754,42.7873
456.786,12773.673,15110.7,,456.786,24370.579,32900.3,,456.786,52.4143,0.459287,45.9287,42.8639
458.732,11843.111,13648.8,,458.732,20454.45,27407.8,,458.732,57.8999,0.497992,49.7992,43.852
460.679,10944.194,12477.9,,460.679,17336.43,22959.3,,460.679,63.1283,0.543478,54.3478,45.9394
462.627,9950.814,11430.4,,462.627,14707.613,19335.7,,462.627,67.6576,0.591155,59.1155,49.0172
464.576,8884.311,10389,,464.576,12463.222,16334.4,,464.576,71.2842,0.636018,63.6018,52.8235
466.526,7830.337,9334.89,,466.526,10551.892,13810.2,,466.526,74.2079,0.67594,67.594,57.0296
468.477,6881.638,8303.28,,468.477,9025.241,11703.9,,468.477,76.2488,0.709446,70.9446,61.289
470.429,6089.103,7352.09,,470.429,7818.333,9984.2,,470.429,77.8824,0.736372,73.6372,65.2974
472.382,5463.855,6527.07,,472.382,6899.26,8608.48,,472.382,79.1948,0.758214,75.8214,68.8596
474.336,4949.65,5835.96,,474.336,6186.437,7525.12,,474.336,80.0081,0.77553,77.553,71.8895
476.292,4542.676,5264.57,,476.292,5650.679,6682.84,,476.292,80.3917,0.787775,78.7775,74.369
478.248,4226.379,4803.06,,478.248,5248.95,6036.29,,478.248,80.5186,0.795697,79.5697,76.3143
480.205,3980.491,4435.83,,480.205,4936.14,5542.55,,480.205,80.6398,0.800323,80.0323,77.7843
482.164,3803.466,4149.4,,482.164,4730.842,5169.31,,482.164,80.3972,0.802698,80.2698,78.846
484.123,3707.237,3941.38,,484.123,4621.49,4909.27,,484.123,80.2174,0.802845,80.2845,79.5436
486.083,3704.72,3813.7,,486.083,4648.985,4759.32,,486.083,79.6888,0.801312,80.1312,79.9366
488.045,3839.591,3786.31,,488.045,4831.615,4743.7,,488.045,79.4681,0.798176,79.8176,80.0797
490.007,4065.077,3867.97,,490.007,5132.308,4858.48,,490.007,79.2056,0.796128,79.6128,80.0588
491.971,4380.767,4046.66,,491.971,5580.085,5109.18,,491.971,78.5072,0.792036,79.2036,79.9037
493.936,4784.188,4319.57,,493.936,6134.021,5491.74,,493.936,77.9943,0.786558,78.6558,79.6242
495.901,5251.188,4678.91,,495.901,6805.139,5993.71,,495.901,77.165,0.780636,78.0636,79.245
497.868,5770.972,5108.71,,497.868,7560.527,6605.84,,497.868,76.3303,0.773363,77.3363,78.7823
499.836,6314.068,5592.17,,499.836,8398.979,7313.26,,499.836,75.1766,0.764662,76.4662,78.2136
501.804,6879.816,6110.72,,501.804,9288.26,8101.74,,501.804,74.07,0.754248,75.4248,77.5066
503.774,7429.608,6653.03,,503.774,10243.017,8963.53,,503.774,72.5334,0.742234,74.2234,76.6772
505.745,7947.887,7192.7,,505.745,11150.964,9863.56,,505.745,71.2753,0.72922,72.922,75.707
507.717,8376.505,7700.81,,507.717,12055.608,10765.2,,507.717,69.4822,0.715345,71.5345,74.6088
509.69,8753.165,8147.9,,509.69,12973.535,11674.3,,509.69,67.4694,0.697936,69.7936,73.3463
511.664,9079.648,8553.26,,511.664,13871.801,12583.8,,511.664,65.454,0.679703,67.9703,71.923
513.639,9267.469,8882.8,,513.639,14671.604,13461.2,,513.639,63.166,0.659879,65.9879,70.3394
515.615,9338.403,9108.48,,515.615,15397.06,14281.8,,515.615,60.6506,0.637769,63.7769,68.591
517.592,9296.501,9220.37,,517.592,16069.592,15040.5,,517.592,57.8515,0.613035,61.3035,66.6365
519.57,9138.46,9224.94,,519.57,16637.44,15729,,519.57,54.9271,0.586493,58.6493,64.4816
521.549,8881.152,9117.95,,521.549,17143.404,16334.7,,521.549,51.8051,0.558196,55.8196,62.1391
523.529,8576.01,8919.3,,523.529,17567.495,16868.9,,523.529,48.8175,0.528743,52.8743,59.6008
525.51,8182.888,8644.81,,525.51,17912.017,17326.5,,525.51,45.6838,0.498934,49.8934,56.8946
527.493,7701.677,8284.89,,527.493,18129.767,17691.4,,527.493,42.4808,0.468301,46.8301,54.052
529.476,7175.542,7846.73,,529.476,18298.241,17965.2,,529.476,39.2144,0.436774,43.6774,51.1011
531.46,6596.847,7348.72,,531.46,18376.976,18162.2,,531.46,35.8973,0.404615,40.4615,48.0608
533.446,5989.428,6800.13,,533.446,18394.461,18277.2,,533.446,32.561,0.372055,37.2055,44.954
535.432,5395.76,6225.69,,535.432,18380.008,18335.7,,535.432,29.3567,0.339539,33.9539,41.7903
537.419,4814.951,5644.83,,537.419,18314.218,18342.9,,537.419,26.2908,0.30774,30.774,38.5906
539.408,4261.463,5070.34,,539.408,18241.306,18310.1,,539.408,23.3616,0.276915,27.6915,35.3894
541.397,3722.504,4508.74,,541.397,18116.433,18244.7,,541.397,20.5477,0.247126,24.7126,32.2207
543.388,3209.955,3965.63,,543.388,18010.748,18152.8,,543.388,17.8224,0.218459,21.8459,29.1162
545.379,2727.261,3449.02,,545.379,17860.086,18041.7,,545.379,15.2701,0.19117,19.117,26.1041
547.372,2271.06,2953.79,,547.372,17739.367,17915.4,,547.372,12.8024,0.164874,16.4874,23.2005
549.365,1865.182,2490.88,,549.365,17602.812,17792,,549.365,10.5959,0.14,14,20.4113
551.36,1504.977,2070.99,,551.36,17418.725,17651.3,,551.36,8.64,0.117327,11.7327,17.7556
553.356,1184.942,1692.33,,553.356,17167.843,17468.1,,553.356,6.9021,0.0968809,9.68809,15.255
555.352,925.818,1359.15,,555.352,16964.686,17256.7,,555.352,5.45732,0.078761,7.8761,12.9304
557.35,723.01,1078.07,,557.35,16744.941,17055.5,,557.35,4.31778,0.0632095,6.32095,10.8052
559.349,562.248,849.095,,559.349,16493.069,16829.6,,559.349,3.409,0.0504525,5.04525,8.91102
561.348,439.591,665.502,,561.348,16250.673,16589.7,,561.348,2.70506,0.0401153,4.01153,7.26171
563.349,362.707,526.385,,563.349,15993.017,16348.1,,563.349,2.26791,0.0321985,3.21985,5.86017
565.351,297.476,423.516,,565.351,15706.557,16090.7,,565.351,1.89396,0.0263205,2.63205,4.7061
567.354,242.751,343.379,,567.354,15408.025,15816.3,,567.354,1.57548,0.0217105,2.17105,3.78076
569.358,198.812,279.374,,569.358,15122.221,15533,,569.358,1.3147,0.0179858,1.79858,3.05172
571.363,172.453,230.323,,571.363,14803.019,15236.5,,571.363,1.16499,0.0151165,1.51165,2.48462
573.368,148.467,194.315,,573.368,14476.131,14927.8,,573.368,1.0256,0.013017,1.3017,2.05078
575.375,126.206,163.49,,575.375,14137.525,14603.3,,575.375,0.892702,0.0111954,1.11954,1.71292
577.383,107.766,139.028,,577.383,13856.848,14288,,577.383,0.777709,0.00973036,0.973036,1.44555
579.392,91.216,117.545,,579.392,13553.915,13989.5,,579.392,0.672986,0.00840233,0.840233,1.23213
581.402,79.586,100.058,,581.402,13220.763,13677.3,,581.402,0.601977,0.0073156,0.73156,1.06073
583.413,68.952,86.3135,,583.413,12883.828,13351.8,,583.413,0.535183,0.00646456,0.646456,0.919114
585.425,65.376,76.9089,,585.425,12565.841,13024.3,,585.425,0.520268,0.00590501,0.590501,0.802383
587.439,51.072,67.8853,,587.439,12218.756,12701.1,,587.439,0.41798,0.00534485,0.534485,0.707151
589.453,43.818,56.7548,,589.453,11860.998,12358.4,,589.453,0.369429,0.0045924,0.45924,0.62472
591.468,49.616,51.6804,,591.468,11532.923,12014.7,,591.468,0.430212,0.00430144,0.430144,0.557004
593.484,41.531,49.0606,,593.484,11205.222,11680.4,,593.484,0.37064,0.00420023,0.420023,0.506024
595.501,34.51,43.2239,,595.501,10855.083,11343.6,,595.501,0.317916,0.00381042,0.381042,0.463226
597.519,27.713,36.5542,,597.519,10499.447,10998.9,,597.519,0.263947,0.00332344,0.332344,0.421198
599.539,27.859,31.7135,,599.539,10162.072,10650.4,,599.539,0.274147,0.00297767,0.297767,0.384504
601.559,28.843,29.4188,,601.559,9798.777,10300.6,,601.559,0.294353,0.00285601,0.285601,0.355505
603.58,33.658,30.351,,603.58,9459.679,9949.95,,603.58,0.355805,0.00305036,0.305036,0.330967
605.602,30.299,31.4045,,605.602,9106.042,9603.99,,605.602,0.332735,0.00326994,0.326994,0.315455
607.626,24.164,29.3789,,607.626,8752.966,9252.65,,607.626,0.276066,0.00317519,0.317519,0.308597
609.65,25.409,27.3255,,609.65,8417.211,8907.23,,609.65,0.30187,0.00306779,0.306779,0.307047
611.675,30.309,27.4536,,611.675,8081.183,8566.92,,611.675,0.375056,0.00320461,0.320461,0.311418
613.702,32.704,28.6815,,613.702,7750.473,8230.89,,613.702,0.421961,0.00348462,0.348462,0.320534
615.729,32.72,30.1386,,615.729,7428.717,7899.72,,615.729,0.440453,0.00381515,0.381515,0.331488
617.757,28.406,30.1438,,617.757,7107.102,7574.24,,617.757,0.399685,0.00397977,0.397977,0.344875
619.787,22.366,27.4305,,619.787,6777.411,7248.79,,619.787,0.330008,0.00378415,0.378415,0.359747
621.817,20.722,24.1149,,621.817,6479.382,6926.44,,621.817,0.319814,0.00348157,0.348157,0.368789
623.849,25.174,22.6788,,623.849,6197.39,6621.21,,623.849,0.406203,0.00342517,0.342517,0.370651
625.881,27.7,24.7321,,625.881,5898.7,6323.7,,625.881,0.469595,0.00391102,0.391102,0.372736
627.915,21.163,24.5252,,627.915,5597.269,6026.39,,627.915,0.378095,0.00406963,0.406963,0.375599
629.949,20.65,22.7999,,629.949,5317.543,5729.63,,629.949,0.388337,0.00397929,0.397929,0.376552
631.985,21.742,22.4895,,631.985,5078.235,5452.72,,631.985,0.428141,0.00412446,0.412446,0.383986
634.021,18.047,21.693,,634.021,4845.814,5199.17,,634.021,0.372425,0.0041724,0.41724,0.398116
636.059,21.718,20.1638,,636.059,4614.617,4957.05,,636.059,0.470635,0.00406771,0.406771,0.40648
638.098,22.847,21.0832,,638.098,4396.936,4722.31,,638.098,0.519612,0.00446461,0.446461,0.412229
640.137,22.943,22.6143,,640.137,4190.298,4500.78,,640.137,0.547527,0.00502452,0.502452,0.428828
642.178,18.47,21.7175,,642.178,3977.679,4285.8,,642.178,0.464341,0.00506732,0.506732,0.449716
644.219,24.997,21.3748,,644.219,3776.175,4074.28,,644.219,0.661966,0.00524628,0.524628,0.468409
646.262,28.838,24.6068,,646.262,3579.935,3869.46,,646.262,0.805545,0.00635923,0.635923,0.50532
648.306,26.664,26.43,,648.306,3390.26,3668.67,,648.306,0.786488,0.00720425,0.720425,0.558632
650.35,26.36,26.2374,,650.35,3226.089,3481.54,,650.35,0.817088,0.00753615,0.753615,0.610555
652.396,24.029,25.6031,,652.396,3054.629,3304.68,,652.396,0.786642,0.00774754,0.774754,0.65985
654.443,24.165,24.9808,,654.443,2884.204,3130.37,,654.443,0.837839,0.00798012,0.798012,0.713389
656.49,22.171,24.2066,,656.49,2731.414,2962.54,,656.49,0.811704,0.00817091,0.817091,0.758701
658.539,24.046,24.0748,,658.539,2580.731,2804.5,,658.539,0.931752,0.00858436,0.858436,0.78815
660.589,19.838,22.5444,,660.589,2427.603,2648.13,,660.589,0.817185,0.00851334,0.851334,0.811188
662.64,23.599,21.7489,,662.64,2288.091,2497.08,,662.64,1.03138,0.00870973,0.870973,0.828347
664.691,25.673,23.9899,,664.691,2164.156,2356.33,,664.691,1.18628,0.010181,1.0181,0.865071
666.744,21.802,24.5247,,666.744,2045.696,2226.29,,666.744,1.06575,0.011016,1.1016,0.916393
668.798,24.934,24.042,,668.798,1925.154,2100.21,,668.798,1.29517,0.0114474,1.14474,0.973705
670.853,22.907,24.1337,,670.853,1815.214,1979.64,,670.853,1.26194,0.0121909,1.21909,1.0374
672.909,21.339,22.7686,,672.909,1715.56,1867.31,,672.909,1.24385,0.0121933,1.21933,1.10641
674.965,22.809,23.1038,,674.965,1611.947,1762.64,,674.965,1.415,0.0131075,1.31075,1.1708
677.023,20.997,22.6296,,677.023,1524.155,1660.97,,677.023,1.37762,0.0136243,1.36243,1.22675
679.082,25.385,22.9946,,679.082,1432.954,1566.48,,679.082,1.77152,0.0146791,1.46791,1.28257
681.142,25.599,24.7934,,681.142,1354.302,1476.52,,681.142,1.8902,0.0167918,1.67918,1.36427
683.203,25.265,24.034,,683.203,1270.438,1392.78,,683.203,1.98868,0.0172562,1.72562,1.45927
685.265,22.452,23.9592,,685.265,1184.315,1306.68,,685.265,1.89578,0.018336,1.8336,1.56544
687.327,23.009,23.0082,,687.327,1118.864,1225.41,,687.327,2.05646,0.0187759,1.87759,1.66354
689.391,27.86,25.142,,689.391,1065.445,1157.43,,689.391,2.61487,0.0217222,2.17222,1.79406
691.456,27.214,26.1167,,691.456,1002.409,1093.7,,691.456,2.71486,0.0238792,2.38792,1.94314
693.522,26.663,26.9926,,693.522,947.984,1031.78,,693.522,2.8126,0.0261612,2.61612,2.10467
695.589,20.99,24.5688,,695.589,895.937,974.024,,695.589,2.3428,0.025224,2.5224,2.25309
697.657,27.656,23.8884,,697.657,844.05,920.439,,697.657,3.27658,0.0259533,2.59533,2.38318
699.726,25.249,25.4626,,699.726,793.442,867.434,,699.726,3.18221,0.029354,2.9354,2.55351
701.796,19.144,24.2721,,701.796,752.07,817.616,,701.796,2.54551,0.0296864,2.96864,2.686
703.867,17.836,21.817,,703.867,717.422,774.53,,703.867,2.48612,0.028168,2.8168,2.75287
705.939,27.35,22.3433,,705.939,679.315,735.617,,705.939,4.02611,0.0303735,3.03735,2.80993
708.012,25.393,24.2934,,708.012,636.773,694.687,,708.012,3.98776,0.0349703,3.49703,2.97675
710.085,28.33,25.2455,,710.085,606.364,655.382,,710.085,4.67211,0.0385202,3.85202,3.1565
712.16,20.317,25.2755,,712.16,566.369,620.068,,712.16,3.58724,0.0407624,4.07624,3.35759
714.236,20.569,22.3761,,714.236,532.352,582.695,,714.236,3.8638,0.0384011,3.84011,3.54753
716.313,22.167,22.3939,,716.313,505.864,550.157,,716.313,4.38201,0.0407046,4.07046,3.76498
718.391,21.598,21.6915,,718.391,472.365,517.728,,718.391,4.57231,0.0418974,4.18974,3.9359
720.47,18.583,21.317,,720.47,447.827,487.368,,720.47,4.14959,0.043739,4.3739,4.06915
722.55,24.015,22.2198,,722.55,433.743,462.584,,722.55,5.53669,0.0480341,4.80341,4.1886
724.631,23.755,24.1761,,724.631,409.02,440.922,,724.631,5.80778,0.0548307,5.48307,4.44042
726.713,25.784,23.96,,726.713,388.541,418.692,,726.713,6.63611,0.0572257,5.72257,4.76336
728.796,29.485,25.4671,,728.796,371.186,398.504,,728.796,7.94346,0.0639069,6.39069,5.14951
730.88,28.963,27.0252,,730.88,349.794,379.032,,730.88,8.28002,0.0713006,7.13006,5.65368
732.965,23.528,26.1982,,732.965,336.604,360.43,,732.965,6.98982,0.0726858,7.26858,6.1866
735.051,20.749,23.4076,,735.051,326.387,344.836,,735.051,6.35718,0.0678803,6.78803,6.54132
737.138,22.364,22.1622,,737.138,309.643,331.615,,737.138,7.22251,0.0668311,6.68311,6.76549
739.226,20.897,22.3308,,739.226,297.074,317.355,,739.226,7.03427,0.0703652,7.03652,6.9535
741.315,23.552,22.399,,741.315,293.86,307.387,,741.315,8.0147,0.0728691,7.28691,7.03944
743.405,21.351,22.1712,,743.405,277.141,297.104,,743.405,7.70402,0.0746244,7.46244,7.0525
745.496,24.496,22.6958,,745.496,267.722,284.507,,745.496,9.14979,0.0797726,7.97726,7.17847
747.588,24.844,23.7752,,747.588,263.788,275.873,,747.588,9.41817,0.0861816,8.61816,7.50303
749.681,21.133,22.5569,,749.681,251.092,266.248,,749.681,8.41644,0.0847214,8.47214,7.82788
751.775,22.81,22.2049,,751.775,245.16,256.03,,751.775,9.30413,0.0867279,8.67279,8.10223
753.87,27.419,24.0102,,753.87,247.608,251.097,,753.87,11.0736,0.0956209,9.56209,8.47737
755.966,31.586,27.5315,,755.966,236.574,246.921,,755.966,13.3514,0.111499,11.1499,9.04752
758.063,36.379,30.5982,,758.063,221.635,236.698,,758.063,16.4139,0.129271,12.9271,9.83123
760.161,37.601,33.5768,,760.161,205.981,223.779,,760.161,18.2546,0.150044,15.0044,10.9324
762.26,34.663,35.0716,,762.26,201.861,212.771,,762.26,17.1717,0.164833,16.4833,12.3809
764.36,36.8,35.8089,,764.36,202.38,207.356,,764.36,18.1836,0.172693,17.2693,13.8792
766.461,41.128,37.8017,,766.461,204.113,204.812,,766.461,20.1496,0.184568,18.4568,15.3591
768.562,45.928,40.3092,,768.562,201.143,203.635,,768.562,22.8335,0.197948,19.7948,16.7629
770.665,48.24,43.8175,,770.665,193.588,199.951,,770.665,24.9189,0.219141,21.9141,18.1663
772.769,54.535,48.2213,,772.769,193.397,196.739,,772.769,28.1985,0.245103,24.5103,19.6544
774.874,52.262,50.7697,,774.874,185.475,193.222,,774.874,28.1774,0.262754,26.2754,21.3822
776.98,56.238,51.7318,,776.98,189.418,190.42,,776.98,29.6899,0.271672,27.1672,23.128
779.087,54.273,53.1545,,779.087,181.983,187.565,,779.087,29.8231,0.283393,28.3393,24.8521
781.195,56.232,53.544,,781.195,180.753,184.49,,781.195,31.1099,0.290227,29.0227,26.3704
783.304,59.522,55.6806,,783.304,173.935,181.758,,783.304,34.2208,0.306345,30.6345,27.7197
785.414,54.075,55.7194,,785.414,167.726,177.097,,785.414,32.2401,0.314627,31.4627,28.8436
787.525,54.509,54.4831,,787.525,158.788,170.284,,787.525,34.3282,0.319955,31.9955,29.8155
789.637,50.509,53.8614,,789.637,156.031,163.472,,789.637,32.3711,0.329484,32.9484,30.7679
791.749,50.541,52.7514,,791.749,153.463,159.225,,791.749,32.9337,0.331301,33.1301,31.6291
793.863,51.012,51.4857,,793.863,150.563,156.128,,793.863,33.8808,0.329767,32.9767,32.275
795.978,58.648,53.0278,,795.978,150.986,153.586,,795.978,38.8433,0.345265,34.5265,32.7835
798.094,56.276,55.933,,798.094,150.643,152.262,,798.094,37.3572,0.367347,36.7347,33.6565
800.211,50.266,54.4376,,800.211,146.816,150.657,,800.211,34.2374,0.361335,36.1335,34.3933
802.329,49.013,51.1516,,802.329,147.662,149.629,,802.329,33.1927,0.341856,34.1856,34.7453
804.448,52.608,50.1398,,804.448,146.668,148.293,,804.448,35.8688,0.338112,33.8112,34.9163
806.567,49.007,51.1568,,806.567,155.107,149.196,,806.567,31.5956,0.342883,34.2883,35.0913
808.688,44.828,48.7376,,808.688,147.652,150.275,,808.688,30.3606,0.324323,32.4323,34.5665
810.81,47.549,47.3211,,810.81,146.27,148.305,,810.81,32.5077,0.319079,31.9079,33.6717
812.933,44.519,47.0598,,812.933,144.419,147.154,,812.933,30.8263,0.319799,31.9799,33.0454
815.057,45.964,45.1941,,815.057,153.045,147.675,,815.057,30.033,0.306038,30.6038,32.4906
817.181,52.216,47.2246,,817.181,155.736,151.328,,817.181,33.5285,0.312067,31.2067,31.8719
819.307,50.325,49.2974,,819.307,151.672,152.245,,819.307,33.1802,0.323802,32.3802,31.6373
821.434,52.391,50.1533,,821.434,160.59,153.76,,821.434,32.6241,0.326178,32.6178,31.7537
823.562,60.165,53.2207,,823.562,163.951,158.246,,823.562,36.6969,0.336317,33.6317,31.9602
825.69,59.411,57.0632,,825.69,174.003,163.075,,825.69,34.1437,0.34992,34.992,32.5982
827.82,58.651,57.2449,,827.82,189.855,173.097,,827.82,30.8925,0.33071,33.071,33.194
829.951,58.11,57.7544,,829.951,205.274,186.255,,829.951,28.3085,0.310083,31.0083,33.1656
832.082,62.162,59.5654,,832.082,215.495,198.43,,832.082,28.8461,0.300184,30.0184,32.7218
834.215,70.17,62.4399,,834.215,216.898,206.786,,834.215,32.3516,0.301954,30.1954,32.183
836.349,71.456,66.6545,,836.349,219.103,211.731,,836.349,32.613,0.314808,31.4808,31.5729
838.483,71.009,68.2981,,838.483,241.528,220.303,,838.483,29.3999,0.310019,31.0019,30.9849
840.619,79.432,71.2193,,840.619,278.337,239.836,,840.619,28.5381,0.29695,29.695,30.5874
842.755,94.688,78.546,,842.755,333.384,272.42,,842.755,28.4021,0.288327,28.8327,30.3177
844.893,111.034,91.4773,,844.893,400.011,320.492,,844.893,27.7577,0.285428,28.5428,30.0908
847.032,126.701,105.962,,847.032,474.535,380.132,,847.032,26.7,0.278752,27.8752,29.5601
849.171,153.665,124.031,,849.171,556.983,450.155,,849.171,27.5888,0.275529,27.5529,28.8151
851.312,180.333,146.736,,851.312,630.508,525.136,,851.312,28.6012,0.279424,27.9424,28.2978
853.453,201.826,169.968,,853.453,703.737,599.605,,853.453,28.6792,0.283466,28.3466,28.1043
855.596,225.847,192.77,,855.596,769.709,671.021,,855.596,29.3419,0.287278,28.7278,28.074
857.739,248.809,215.984,,857.739,829.831,738.184,,857.739,29.9831,0.292588,29.2588,28.2351
859.884,263.049,236.9,,859.884,871.417,796.955,,859.884,30.1864,0.297257,29.7257,28.6115
862.029,281.108,254.63,,862.029,905.793,845.071,,862.029,31.0345,0.301312,30.1312,29.0552
864.175,306.693,274.481,,864.175,932.101,884.121,,864.175,32.9034,0.310456,31.0456,29.5491
866.323,330.681,296.924,,866.323,956.712,915.345,,866.323,34.5643,0.324385,32.4385,30.2162
868.471,359.908,320.966,,868.471,993.127,945.857,,868.471,36.2399,0.339339,33.9339,31.0762
870.621,389.753,348.388,,870.621,1031.509,979.757,,870.621,37.7847,0.355586,35.5586,32.1428
872.771,422.67,377.211,,872.771,1082.553,1018.45,,872.771,39.0438,0.370377,37.0377,33.4222
874.922,460.429,410.054,,874.922,1157.861,1070.42,,874.922,39.7655,0.383079,38.3079,34.8416
877.075,501.288,445.906,,877.075,1234.603,1135.19,,877.075,40.6032,0.392803,39.2803,36.2376
879.228,538.486,484.307,,879.228,1331.316,1211.7,,879.228,40.4476,0.399691,39.9691,37.5118
881.382,579.124,522.94,,881.382,1420.587,1298.52,,881.382,40.7665,0.402721,40.2721,38.562
883.537,621.135,563.731,,883.537,1504.383,1384.85,,883.537,41.2884,0.40707,40.707,39.3861
885.694,645.713,600.465,,885.694,1575.576,1466.43,,885.694,40.9827,0.409474,40.9474,40.0097
887.851,658.346,627.616,,887.851,1624.133,1535.65,,887.851,40.5352,0.408699,40.8699,40.42
890.009,669.681,646.871,,890.009,1658.197,1592.38,,890.009,40.3861,0.40623,40.623,40.6228
892.168,666.939,659.89,,892.168,1654.916,1627.2,,892.168,40.3005,0.405538,40.5538,40.7094
894.328,646.751,658.103,,894.328,1623.094,1635.81,,894.328,39.8468,0.40231,40.231,40.6895
896.489,621.195,645.786,,896.489,1559.063,1613.7,,896.489,39.8441,0.40019,40.019,40.5405
898.651,591.642,625.03,,898.651,1463.155,1561.85,,898.651,40.436,0.400185,40.0185,40.3633
900.815,563.918,600.639,,900.815,1371.84,1486.62,,900.815,41.1067,0.404031,40.4031,40.2718
902.979,533.477,573.467,,902.979,1278.203,1404.37,,902.979,41.7365,0.408345,40.8345,40.2959
905.144,513.362,547.369,,905.144,1176.028,1312.13,,905.144,43.6522,0.417161,41.7161,40.4838
907.31,490.494,523.725,,907.31,1086.914,1218.25,,907.31,45.1272,0.4299,42.99,40.9602
909.477,467.21,499.982,,909.477,995.007,1125.59,,909.477,46.9554,0.444197,44.4197,41.7174
911.644,450.655,478.024,,911.644,906.569,1034.2,,911.644,49.71,0.462218,46.2218,42.7608
913.813,437.791,459.936,,913.813,837.096,949.149,,913.813,52.2988,0.484577,48.4577,44.1264
915.983,425.605,444.244,,915.983,779.347,876.084,,915.983,54.6105,0.50708,50.708,45.8126
918.154,419.328,432.87,,918.154,720.052,810.915,,918.154,58.2358,0.533804,53.3804,47.7671
920.326,400.233,421.432,,920.326,664.393,749.018,,920.326,60.2404,0.562646,56.2646,50.0199
922.499,389.047,407.737,,922.499,626.552,695.278,,922.499,62.0933,0.586438,58.6438,52.4465
924.673,376.497,395.542,,924.673,585.166,648.683,,924.673,64.3402,0.609761,60.9761,54.9302
926.847,361.22,381.388,,926.847,544.415,604.98,,926.847,66.3501,0.630415,63.0415,57.3904
929.023,337.943,365.002,,929.023,503.118,561.581,,929.023,67.1697,0.649955,64.9955,59.7744
931.2,314.574,343.578,,931.2,461.003,519.111,,931.2,68.2369,0.661859,66.1859,61.8869
933.377,296.388,324.11,,933.377,423.069,477.983,,933.377,70.0567,0.678078,67.8078,63.7772
935.556,271.02,302.976,,935.556,394.863,441.516,,935.556,68.6365,0.686218,68.6218,65.45
937.736,254.106,282.459,,937.736,366.565,410.534,,937.736,69.3209,0.688028,68.8028,66.7512
939.916,234.828,263.717,,939.916,346.448,382.393,,939.916,67.7816,0.689648,68.9648,67.705
942.098,216.096,244.818,,942.098,328.331,358.575,,942.098,65.8165,0.682752,68.2752,68.275
944.28,207.637,227.764,,944.28,309.213,337.735,,944.28,67.1502,0.674388,67.4388,68.4137
946.464,194.359,215.453,,946.464,292.368,318.275,,946.464,66.4775,0.676941,67.6941,68.2817
948.648,181.081,201.436,,948.648,277.341,301.738,,948.648,65.2918,0.667585,66.7585,67.974
950.834,173.985,188.56,,950.834,265.768,285.869,,950.834,65.465,0.659604,65.9604,67.4465
953.02,164.525,178.208,,953.02,255.012,272.17,,953.02,64.5166,0.654767,65.4767,66.8631
955.207,153.792,167.86,,955.207,249.711,262,,955.207,61.588,0.640687,64.0687,66.2614
957.396,149.605,158.832,,957.396,236.5,252.082,,957.396,63.2579,0.630082,63.0082,65.4503
959.585,147.781,153.932,,959.585,236.106,242.885,,959.585,62.591,0.633764,63.3764,64.6899
961.775,141.776,149.301,,961.775,229.44,237.911,,961.775,61.7922,0.627548,62.7548,64.0394
963.966,140.315,144.966,,963.966,221.773,231.494,,963.966,63.2696,0.626222,62.6222,63.4326
966.159,136.946,142.136,,966.159,219.105,225.236,,966.159,62.5025,0.631055,63.1055,63.0351
968.352,139.758,141.257,,968.352,220.619,222.053,,968.352,63.3481,0.636141,63.6141,63.0271
970.546,138.843,140.834,,970.546,218.496,220.446,,970.546,63.5449,0.638857,63.8857,63.1334
972.741,137.473,140.158,,972.741,219.555,220.312,,972.741,62.6144,0.63618,63.618,63.2535
974.937,132.103,137.746,,974.937,218.158,219.266,,974.937,60.5538,0.628216,62.8216,63.3299
977.134,138.37,136.802,,977.134,219.124,219.024,,977.134,63.1469,0.624598,62.4598,63.2426
979.332,144.454,139.916,,979.332,221.817,219.666,,979.332,65.1231,0.636949,63.6949,63.227
981.531,143.902,141.694,,981.531,227.964,223.572,,981.531,63.1249,0.633774,63.3774,63.2052
983.731,146.987,143.222,,983.731,233.383,227.857,,983.731,62.981,0.62856,62.856,63.0601
985.932,151.253,145.264,,985.932,240.438,232.49,,985.932,62.9073,0.62482,62.482,62.9402
988.134,165.337,151.513,,988.134,249.583,238.987,,988.134,66.2453,0.633979,63.3979,63.0617
990.336,169.784,159.922,,990.336,255.455,246.471,,990.336,66.4634,0.648847,64.8847,63.3745
992.54,173.868,164.696,,992.54,261.962,253.353,,992.54,66.3715,0.650066,65.0066,63.6415
994.745,180.77,170.273,,994.745,274.288,260.722,,994.745,65.9052,0.653083,65.3083,64.0378
996.951,184.944,176.925,,996.951,286.612,270.187,,996.951,64.5277,0.654824,65.4824,64.5629
999.157,184.664,180.499,,999.157,293.481,280.193,,999.157,62.922,0.644194,64.4194,64.9503
1001.365,192.929,184.151,,1001.365,301.168,289.222,,1001.365,64.0603,0.636709,63.6709,64.8891
1003.573,197.831,190.048,,1003.573,303.763,296.508,,1003.573,65.1268,0.640956,64.0956,64.6786
1005.783,208.732,196.424,,1005.783,310.267,301.218,,1005.783,67.275,0.6521,65.21,64.6136
1007.993,218.633,205.154,,1007.993,329.769,311.349,,1007.993,66.2988,0.658921,65.8921,64.6734
1010.205,236.716,216.996,,1010.205,350.362,326.477,,1010.205,67.5633,0.664659,66.4659,64.8916
1012.417,242.889,229.336,,1012.417,374.227,345.141,,1012.417,64.9042,0.66447,66.447,65.3872
1014.631,260.517,241.041,,1014.631,403,368.867,,1014.631,64.6444,0.653464,65.3464,65.7333
1016.845,279.872,255.906,,1016.845,427.136,393.454,,1016.845,65.5229,0.650409,65.0409,65.8381
1019.06,300.409,272.641,,1019.06,460.817,418.868,,1019.06,65.1905,0.650898,65.0898,65.7466
1021.277,319.673,291.501,,1021.277,488.77,448.532,,1021.277,65.4036,0.6499,64.99,65.5386
1023.494,326.846,308.068,,1023.494,508.176,474.235,,1023.494,64.3175,0.649611,64.9611,65.2292
1025.712,336.473,319.6,,1025.712,529.673,497.215,,1025.712,63.5247,0.642781,64.2781,64.9457
1027.931,341.645,329.387,,1027.931,553.986,519.436,,1027.931,61.6703,0.634125,63.4125,64.6644
1030.151,344.636,336.405,,1030.151,563.39,539.993,,1030.151,61.1718,0.62298,62.298,64.1804
1032.372,341.808,340.11,,1032.372,575.884,555.399,,1032.372,59.3536,0.612372,61.2372,63.5345
1034.594,333.434,338.921,,1034.594,581.558,567.714,,1034.594,57.3346,0.596992,59.6992,62.6116
1036.817,332.97,336.054,,1036.817,588.232,576.536,,1036.817,56.6052,0.582885,58.2885,61.4813
1039.041,326.959,333.126,,1039.041,588.632,583.337,,1039.041,55.5456,0.57107,57.107,60.2614
1041.266,320.585,328.611,,1041.266,590.031,586.847,,1041.266,54.3336,0.55996,55.996,59.0184
1043.492,313.029,323.059,,1043.492,586.793,588.034,,1043.492,53.3457,0.549388,54.9388,57.7557
1045.718,304.746,315.162,,1045.718,596.644,589.947,,1045.718,51.0767,0.53422,53.422,56.4929
1047.946,290.644,306.76,,1047.946,593.313,592.824,,1047.946,48.9866,0.517456,51.7456,55.1953
1050.175,283.269,296.339,,1050.175,601.617,594.302,,1050.175,47.0846,0.498635,49.8635,53.7957
1052.405,270.712,286.923,,1052.405,602.011,599.239,,1052.405,44.9679,0.478811,47.8811,52.2423
1054.635,254.519,274.537,,1054.635,596.403,597.902,,1054.635,42.6757,0.459167,45.9167,50.5288
1056.867,245.689,263.174,,1056.867,592.068,595.968,,1056.867,41.4968,0.441592,44.1592,48.685
1059.099,232.404,251.493,,1059.099,580.549,590.142,,1059.099,40.0318,0.426157,42.6157,46.8568
1061.333,225.665,240.256,,1061.333,581.393,583.967,,1061.333,38.8145,0.41142,41.142,45.0774
1063.567,214.561,229.796,,1063.567,572.872,579.42,,1063.567,37.4536,0.396597,39.6597,43.3906
1065.802,201.458,218.093,,1065.802,567.258,573.583,,1065.802,35.5144,0.38023,38.023,41.7722
1068.039,191.445,206.067,,1068.039,565.462,569.197,,1068.039,33.8564,0.362032,36.2032,40.1852
1070.276,182.977,195.91,,1070.276,558.937,565.166,,1070.276,32.7366,0.346641,34.6641,38.6014
1072.514,174.054,186.384,,1072.514,559.139,561.587,,1072.514,31.1289,0.331887,33.1887,37.0293
1074.753,160.132,176.762,,1074.753,550.884,558.469,,1074.753,29.0682,0.316513,31.6513,35.4403
1076.993,148.936,165.136,,1076.993,535.083,550.983,,1076.993,27.8342,0.299712,29.9712,33.8267
1079.234,139.649,154.173,,1079.234,534.007,542.727,,1079.234,26.1512,0.284071,28.4071,32.2387
1081.476,129.726,144.57,,1081.476,529.385,537.937,,1081.476,24.505,0.268749,26.8749,30.6818
1083.719,120.347,134.926,,1083.719,527.215,532.68,,1083.719,22.8269,0.253296,25.3296,29.1073
1085.963,109.15,124.341,,1085.963,520.772,529.228,,1085.963,20.9593,0.234949,23.4949,27.4945
1088.208,100.408,114.244,,1088.208,513.782,522.837,,1088.208,19.5429,0.218507,21.8507,25.8657
1090.454,85.756,102.411,,1090.454,508.245,517.41,,1090.454,16.873,0.19793,19.793,24.1895
1092.772,86.468,92.0336,,1092.772,503.615,512.319,,1092.772,17.1695,0.179641,17.9641,22.4327
1094.985,80.906,87.2651,,1094.985,503.075,508.097,,1094.985,16.0823,0.171749,17.1749,20.7762
1097.197,77.071,81.9787,,1097.197,501.351,505.686,,1097.197,15.3727,0.162114,16.2114,19.2557
1099.409,76.691,79.1984,,1099.409,492.535,500.414,,1099.409,15.5707,0.158266,15.8266,17.9586
1101.622,67.492,75.1984,,1101.622,486.626,494.006,,1101.622,13.8694,0.152222,15.2222,16.9008
1103.834,61.475,69.2851,,1103.834,478.08,487.981,,1103.834,12.8587,0.141983,14.1983,16.0584
1106.047,56.276,63.1431,,1106.047,472.804,481.235,,1106.047,11.9026,0.131211,13.1211,15.2594
1108.259,51.894,57.4696,,1108.259,469.89,475.543,,1108.259,11.0439,0.12085,12.085,14.4383
1110.472,46.967,53.1916,,1110.472,464.157,470.658,,1110.472,10.1188,0.113015,11.3015,13.5993
1112.684,44.676,49.4698,,1112.684,458.24,466.471,,1112.684,9.74948,0.106051,10.6051,12.6971
1114.897,38.839,45.8014,,1114.897,439.867,458.028,,1114.897,8.82971,0.099997,9.9997,11.8249
1117.109,41.092,42.2627,,1117.109,433.31,445.914,,1117.109,9.48328,0.0947777,9.47777,11.0405
1119.321,37.527,41.8363,,1119.321,426.297,436.608,,1119.321,8.80302,0.0958212,9.58212,10.4416
1121.534,30.235,37.8918,,1121.534,422.645,429.973,,1121.534,7.15376,0.0881262,8.81262,9.93517
1123.746,26.578,32.7918,,1123.746,415.719,425.571,,1123.746,6.39326,0.0770536,7.70536,9.35979
1125.959,28.558,29.6041,,1125.959,403.973,416.838,,1125.959,7.06928,0.0710207,7.10207,8.77147
1128.171,33.264,29.8642,,1128.171,398.589,409.039,,1128.171,8.34544,0.0730107,7.30107,8.29322
1130.384,38.424,33.4105,,1130.384,395.84,403.913,,1130.384,9.70695,0.082717,8.2717,7.99196
1132.596,35.13,35.7914,,1132.596,378.543,395.556,,1132.596,9.28032,0.0904838,9.04838,7.8988
1134.809,30.199,34.0144,,1134.809,374.335,384.54,,1134.809,8.06737,0.0884548,8.84548,8.01162
1137.021,28.813,31.9207,,1137.021,371.398,379.121,,1137.021,7.75798,0.0841966,8.41966,8.22311
1139.233,27.336,29.8858,,1139.233,349.913,370.158,,1139.233,7.81223,0.080738,8.0738,8.41059
1141.446,30.677,29.3181,,1141.446,346.154,357.45,,1141.446,8.86224,0.08202,8.202,8.49957
1143.658,29.926,29.9609,,1143.658,340.03,350.921,,1143.658,8.80099,0.0853779,8.53779,8.46613
1145.871,28.902,29.7967,,1145.871,331.449,342.534,,1145.871,8.71989,0.0869889,8.69889,8.41017
1148.083,31.151,30.9209,,1148.083,325.32,335.189,,1148.083,9.57549,0.0922492,9.22492,8.48265
1150.296,24.581,29.4055,,1150.296,310.099,325.84,,1150.296,7.92682,0.0902453,9.02453,8.65826
1152.508,30.829,27.7789,,1152.508,304.513,314.779,,1152.508,10.124,0.0882486,8.82486,8.79046
1154.721,29.349,29.2612,,1154.721,298.015,308.209,,1154.721,9.84816,0.0949395,9.49395,8.97519
1156.933,25.415,28.0333,,1156.933,288.97,300.036,,1156.933,8.79503,0.0934329,9.34329,9.12545
1159.145,21.844,25.9731,,1159.145,283.56,294.558,,1159.145,7.70348,0.0881765,8.81765,9.14762
1161.358,17.363,22.5131,,1161.358,274.875,287.645,,1161.358,6.31669,0.0782669,7.82669,8.9423
1163.57,16.246,19.7602,,1163.57,266.734,280.18,,1163.57,6.09071,0.0705268,7.05268,8.64225
1165.783,15.673,17.504,,1165.783,261.591,272.169,,1165.783,5.99141,0.0643132,6.43132,8.15656
1167.995,18.373,17.0129,,1167.995,257.901,265.682,,1167.995,7.12405,0.0640347,6.40347,7.56813
1170.208,18.073,17.616,,1170.208,253.846,260.44,,1170.208,7.11967,0.0676394,6.76394,7.10608
1172.42,17.864,17.8435,,1172.42,242.062,253.921,,1172.42,7.37993,0.070272,7.0272,6.83238
1174.633,17.745,16.9221,,1174.633,239.549,247.296,,1174.633,7.40767,0.0684286,6.84286,6.73638
1176.845,27.444,20.5329,,1176.845,234.216,242.148,,1176.845,11.7174,0.0847951,8.47951,6.94138
1179.057,22.325,23.3506,,1179.057,225.701,236.343,,1179.057,9.89141,0.0987996,9.87996,7.55955
1181.27,23.659,22.6731,,1181.27,220.366,229.356,,1181.27,10.7362,0.0988556,9.88556,8.16788
1183.482,18.812,21.0765,,1183.482,216.211,224.618,,1183.482,8.70076,0.0938327,9.38327,8.69521
1185.695,24.147,20.8578,,1185.695,208.601,218.908,,1185.695,11.5757,0.0952811,9.52811,9.14219
1187.907,19.936,22.6036,,1187.907,205.99,213.488,,1187.907,9.67814,0.105878,10.5878,9.71211
1190.12,19.815,20.2974,,1190.12,198.65,208.843,,1190.12,9.97483,0.0971898,9.71898,9.83147
1192.332,20.967,20.1923,,1192.332,194.219,202.265,,1192.332,10.7955,0.099831,9.9831,9.83249
1194.545,21.665,20.4837,,1194.545,193.06,197.549,,1194.545,11.2219,0.103689,10.3689,9.90358
1196.757,26.453,22.2848,,1196.757,191.265,194.712,,1196.757,13.8305,0.114451,11.4451,10.2438
1198.969,27.15,25.0541,,1198.969,187.559,192.304,,1198.969,14.4754,0.130284,13.0284,10.705
1201.182,27.666,26.2586,,1201.182,188.127,189.623,,1201.182,14.706,0.138477,13.8477,11.3639
1203.394,23.454,26.8325,,1203.394,189.694,189.042,,1203.394,12.3641,0.141939,14.1939,12.2085
1205.607,18.333,24.0848,,1205.607,193.898,190.265,,1205.607,9.45497,0.126586,12.6586,12.7806
1207.819,23.758,23.009,,1207.819,189.193,191.079,,1207.819,12.5575,0.120416,12.0416,13.0178
1210.032,25.364,23.8924,,1210.032,182.125,187.297,,1210.032,13.9267,0.127564,12.7564,13.0782
1212.244,26.335,24.43,,1212.244,182.512,184.81,,1212.244,14.4292,0.13219,13.219,13.018
1214.456,30.305,25.2272,,1214.456,171.173,181.129,,1214.456,17.7043,0.139278,13.9278,12.9316
1216.669,26.367,26.367,,1216.669,158.562,173.626,,1216.669,16.6288,0.151861,15.1861,13.1918
1218.881,19.519,24.1468,,1218.881,149.498,164.236,,1218.881,13.0564,0.147025,14.7025,13.7588
1221.094,16.854,20.0791,,1221.094,137.617,153.905,,1221.094,12.247,0.130464,13.0464,14.0234
1223.306,16.462,17.3272,,1223.306,130.102,143.31,,1223.306,12.6531,0.120907,12.0907,13.9144
1225.519,20.162,17.8596,,1225.519,112.498,132.02,,1225.519,17.9221,0.135279,13.5279,13.8552
1227.731,16.861,18.0734,,1227.731,103.806,118.791,,1227.731,16.2428,0.152144,15.2144,13.9213
1229.944,14.471,16.7329,,1229.944,97.388,110.104,,1229.944,14.8591,0.151974,15.1974,13.9463
1232.156,11.08,15.0922,,1232.156,86.883,100.672,,1232.156,12.7528,0.149914,14.9914,14.1216
1234.368,11.145,13.0664,,1234.368,89.199,93.3588,,1234.368,12.4945,0.139959,13.9959,14.454
1236.581,9.393,10.935,,1236.581,82.519,88.89,,1236.581,11.3828,0.123017,12.3017,14.4721
1238.793,8.186,8.80925,,1238.793,82.296,84.0546,,1238.793,9.94702,0.104804,10.4804,13.8175
1241.006,11.162,9.02222,,1241.006,74.533,80.6064,,1241.006,14.9759,0.111929,11.1929,12.9512
1242.586,8.078,9.62872,,1242.586,64.806,76.3368,,1242.586,12.4649,0.126135,12.6135,