File: public_html/data/backup/makrolon-dark_brown_819.csv
wavelength_nm,intensity,intensity_smoothed,,wavelength_nm2,intensity_i0,intensity_i0_smoothed,,wavelength_nm3,,transmission,transmission_perc,transmission_perc_smoothed
173.232,8.177,#N/A,,173.232,26.024,#N/A,,173.232,31.421,#N/A,#N/A,#N/A
175.084,6.661,7.87686,,175.084,37.766,29.5889,,175.084,17.6376,0.26621,26.621,#N/A
176.935,8.115,7.54983,,176.935,39.857,35.1131,,176.935,20.3603,0.215015,21.5015,#N/A
178.787,14.115,8.83406,,178.787,37.584,36.6576,,178.787,37.5559,0.240989,24.0989,#N/A
180.639,13.387,11.3112,,180.639,37.128,36.8855,,180.639,36.0563,0.306656,30.6656,#N/A
182.491,8.204,10.4308,,182.491,35.582,36.7372,,182.491,23.0566,0.283931,28.3931,#N/A
184.342,9.658,10.2773,,184.342,43.491,38.4251,,184.342,22.2069,0.267463,26.7463,26.0495
186.194,15.476,11.1502,,186.194,45.403,41.4134,,186.194,34.0859,0.26924,26.924,26.5229
188.046,14.93,13.1382,,188.046,44.584,44.1242,,188.046,33.4873,0.297755,29.7755,27.996
189.897,11.293,12.5021,,189.897,43.31,43.8577,,189.897,26.0748,0.28506,28.506,28.4361
191.749,13.383,13.0037,,191.749,43.4,43.6501,,191.749,30.8364,0.297908,29.7908,28.2829
193.601,11.746,13.1659,,193.601,44.945,44.6684,,193.601,26.1342,0.294748,29.4748,28.7006
195.453,11.746,12.6005,,195.453,40.853,43.7579,,195.453,28.7519,0.28796,28.796,29.2648
197.304,8.472,11.2376,,197.304,44.67,42.9419,,197.304,18.9657,0.261694,26.1694,28.9943
199.156,11.199,10.7193,,199.156,41.124,43.5822,,199.156,27.2323,0.245957,24.5957,27.9271
201.008,15.653,12.4838,,201.008,35.305,40.7299,,201.008,44.3365,0.306503,30.6503,27.8597
202.86,9.743,12.774,,202.86,44.395,41.25,,202.86,21.9462,0.309674,30.9674,28.2386
204.711,11.652,11.2188,,204.711,43.03,42.5105,,204.711,27.0788,0.263907,26.3907,27.9318
206.563,15.106,12.8671,,206.563,41.575,41.5212,,206.563,36.3343,0.309893,30.9893,28.2376
208.415,13.378,14.2253,,208.415,41.756,41.3975,,208.415,32.0385,0.343627,34.3627,29.9208
210.267,11.104,14.2933,,210.267,38.119,40.5497,,210.267,29.1298,0.352489,35.2489,31.4055
212.118,4.922,10.3064,,212.118,41.481,39.618,,212.118,11.8657,0.260146,26.0146,30.8837
213.97,10.012,8.22972,,213.97,40.389,40.2939,,213.97,24.7889,0.204242,20.4242,29.5114
215.822,14.83,10.977,,215.822,34.661,38.4798,,215.822,42.7858,0.285267,28.5267,29.055
217.673,16.102,13.5593,,217.673,41.933,38.7408,,217.673,38.3994,0.35,35,29.1994
219.525,13.737,14.8124,,219.525,44.568,41.7339,,219.525,30.8226,0.354924,35.4924,29.4268
221.377,9.555,13.3199,,221.377,44.749,42.7725,,221.377,21.3524,0.311413,31.1413,29.5168
223.229,9.009,11.1949,,223.229,43.657,42.8089,,223.229,20.6359,0.26151,26.151,30.3775
225.08,12.917,10.8267,,225.08,40.566,42.6129,,225.08,31.8419,0.25407,25.407,30.7376
226.932,15.826,13.1972,,226.932,42.474,41.5992,,226.932,37.2604,0.317245,31.7245,30.391
228.784,13.189,14.2805,,228.784,44.291,42.036,,228.784,29.7781,0.339721,33.9721,30.0605
230.636,11.643,13.2804,,230.636,42.926,42.496,,230.636,27.1234,0.312508,31.2508,29.7511
232.487,17.005,14.1953,,232.487,39.743,42.2131,,232.487,42.7874,0.336278,33.6278,30.5356
234.339,9.914,14.1814,,234.339,42.197,41.7141,,234.339,23.4946,0.339968,33.9968,32.343
236.191,9.731,11.6909,,236.191,45.378,43.5585,,236.191,21.4443,0.268395,26.8395,32.4602
238.043,10.912,11.0257,,238.043,56.013,46.5648,,238.043,19.4812,0.236782,23.6782,30.8352
239.894,10.185,10.3707,,239.894,61.103,53.244,,239.894,16.6686,0.194778,19.4778,28.5426
241.746,10.184,11.2106,,241.746,58.284,56.4093,,241.746,17.4731,0.198736,19.8736,26.2279
243.598,4.729,9.52753,,243.598,62.828,58.4586,,243.598,7.5269,0.162979,16.2979,22.9739
245.449,9.728,8.86997,,245.449,67.464,62.2546,,245.449,14.4195,0.142479,14.2479,19.8913
247.301,13.454,10.7993,,247.301,74.008,67.0479,,247.301,18.1791,0.161069,16.1069,17.943
249.153,10.272,12.0071,,249.153,76.462,71.9343,,249.153,13.4341,0.166918,16.6918,16.9227
251.005,9.362,10.6302,,251.005,78.824,74.4033,,251.005,11.8771,0.142873,14.2873,16.0837
252.856,14.361,11.5527,,252.856,84.096,77.687,,252.856,17.0769,0.148708,14.8708,15.237
254.681,14.815,13.2287,,254.681,83.277,80.7354,,254.681,17.79,0.163853,16.3853,15.4549
256.513,11.814,13.801,,256.513,85.73,82.9864,,256.513,13.7805,0.166305,16.6305,15.7684
258.347,7.905,11.5068,,258.347,87.911,85.0558,,258.347,8.99205,0.135285,13.5285,15.4092
260.181,7.995,9.45779,,260.181,84.546,85.9536,,260.181,9.45639,0.110034,11.0034,14.6348
262.017,3.176,7.30967,,262.017,84.181,85.3776,,262.017,3.77282,0.0856158,8.56158,13.7515
263.853,7.539,6.85131,,263.853,88.362,86.106,,263.853,8.53195,0.0795683,7.95683,12.2814
265.691,6.902,7.87275,,265.691,92.361,87.7832,,265.691,7.47285,0.0896841,8.96841,10.7886
267.53,9.628,8.62986,,267.53,91.36,89.4831,,267.53,10.5385,0.0964413,9.64413,9.59995
269.369,10.082,9.89924,,269.369,92.995,90.0457,,269.369,10.8414,0.109936,10.9936,9.26797
271.21,11.445,9.97442,,271.21,97.903,92.4478,,271.21,11.6901,0.107892,10.7892,9.35391
273.052,10.626,10.8967,,273.052,94.902,94.2616,,273.052,11.1968,0.1156,11.56,9.98207
274.895,7.534,9.64805,,274.895,88.446,92.3501,,274.895,8.51819,0.104473,10.4473,10.4506
276.739,7.442,8.07277,,276.739,88.082,90.1149,,276.739,8.44895,0.089583,8.9583,10.4972
278.584,11.169,8.32753,,278.584,88.171,88.4909,,278.584,12.6674,0.0941061,9.41061,10.2916
280.431,6.804,8.98899,,280.431,90.716,89.2624,,280.431,7.50033,0.100703,10.0703,10.206
282.278,9.531,9.16004,,282.278,89.714,89.8304,,282.278,10.6238,0.10197,10.197,9.99965
284.126,7.803,9.7077,,284.126,92.441,90.4788,,284.126,8.44106,0.107293,10.7293,9.87691
285.976,13.893,9.01695,,285.976,93.803,91.1303,,285.976,14.8108,0.0989456,9.89456,9.93107
287.826,13.438,12.0404,,287.826,92.802,91.8899,,287.826,14.4803,0.131031,13.1031,10.5556
289.678,10.619,12.6262,,289.678,89.255,90.7646,,289.678,11.8974,0.13911,13.911,11.2199
291.531,7.981,10.9833,,291.531,92.527,90.6522,,291.531,8.62559,0.121159,12.1159,11.7249
293.385,8.162,9.61315,,293.385,90.526,91.3556,,293.385,9.01619,0.105228,10.5228,11.7811
295.239,10.889,9.96788,,295.239,91.07,90.4104,,295.239,11.9567,0.110252,11.0252,11.8852
297.095,8.524,10.5904,,297.095,94.887,92.2607,,297.095,8.98332,0.114787,11.4787,11.9089
298.952,14.614,10.7108,,298.952,95.431,93.5602,,298.952,15.3137,0.114481,11.4481,11.4806
300.81,17.341,13.9002,,300.81,93.793,94.3954,,300.81,18.4886,0.147255,14.7255,11.6106
302.669,9.885,13.9333,,302.669,88.338,91.817,,302.669,11.19,0.151751,15.1751,12.4086
304.53,7.43,11.1634,,304.53,89.609,89.7095,,304.53,8.29158,0.124439,12.4439,12.9326
306.391,6.52,10.0261,,306.391,88.062,89.1865,,306.391,7.40387,0.112418,11.2418,12.9488
308.253,7.883,8.59301,,308.253,93.152,90.2314,,308.253,8.46251,0.0952329,9.52329,12.6805
310.117,9.246,8.57917,,310.117,91.605,91.4441,,310.117,10.0933,0.0938188,9.38188,12.0232
311.981,12.245,9.79037,,311.981,91.422,91.101,,311.981,13.3939,0.107467,10.7467,11.0397
313.847,9.698,11.3637,,313.847,95.33,91.2889,,313.847,10.1731,0.12448,12.448,10.6695
315.713,10.698,10.4725,,315.713,94.329,93.5318,,315.713,11.3412,0.111967,11.1967,10.5967
317.581,11.242,10.5678,,317.581,98.418,94.6417,,317.581,11.4227,0.111661,11.1661,10.7825
319.45,8.059,10.2056,,319.45,96.326,96.297,,319.45,8.36638,0.105981,10.5981,11.077
321.319,8.331,9.54142,,321.319,90.416,95.3567,,321.319,9.21408,0.10006,10.006,11.1123
323.19,13.967,11.1664,,323.19,94.142,94.0786,,323.19,14.8361,0.118692,11.8692,10.9948
325.062,15.42,13.3041,,325.062,93.14,93.6586,,325.062,16.5557,0.142049,14.2049,11.3065
326.935,15.147,13.7173,,326.935,97.503,94.264,,326.935,15.5349,0.14552,14.552,11.9251
328.809,9.146,13.6778,,328.809,101.683,97.2686,,328.809,8.99462,0.140619,14.0619,12.5236
330.685,3.69,9.93321,,330.685,99.227,99.6732,,330.685,3.71875,0.0996578,9.96578,12.7249
332.561,9.507,8.61554,,332.561,99.771,99.774,,332.561,9.52882,0.0863506,8.63506,12.3582
334.438,11.961,10.0359,,334.438,97.679,98.6843,,334.438,12.2452,0.101697,10.1697,11.7425
336.316,10.415,10.3642,,336.316,102.496,99.0986,,336.316,10.1614,0.104585,10.4585,11.0179
338.196,11.05,10.718,,338.196,102.131,101.62,,338.196,10.8194,0.105471,10.5471,10.2349
340.076,10.14,11.6909,,340.076,99.947,101.981,,340.076,10.1454,0.114638,11.4638,9.99822
341.958,10.594,11.5818,,341.958,96.491,99.8221,,341.958,10.9793,0.116024,11.6024,10.5094
343.84,10.32,11.9559,,343.84,102.49,99.8795,,343.84,10.0693,0.119704,11.9704,11.042
345.724,9.682,10.9629,,345.724,103.579,101.973,,345.724,9.34745,0.107508,10.7508,11.1412
347.609,13.956,11.2619,,347.609,98.042,100.992,,347.609,14.2347,0.111513,11.1513,11.2286
349.495,11.597,12.483,,349.495,106.676,101.908,,349.495,10.8712,0.122493,12.2493,11.4565
351.382,10.397,11.3885,,351.382,105.402,104.69,,351.382,9.86414,0.108783,10.8783,11.4409
353.269,15.754,11.8733,,353.269,105.292,104.512,,353.269,14.9622,0.113607,11.3607,11.2984
355.158,16.683,14.1872,,355.158,115.346,107.968,,355.158,14.4634,0.131402,13.1402,11.572
357.048,16.225,15.1332,,357.048,110.673,111.077,,357.048,14.6603,0.136241,13.6241,12.1175
358.94,14.883,15.854,,358.94,111.762,109.872,,358.94,13.3167,0.144295,14.4295,12.5648
360.832,8.606,13.5611,,360.832,113.053,110.748,,360.832,7.61236,0.122451,12.2451,12.8147
362.725,14.05,12.0463,,362.725,115.754,112.854,,362.725,12.1378,0.106742,10.6742,12.8058
364.619,16.622,14.8231,,364.619,111.863,113.697,,364.619,14.8592,0.130373,13.0373,12.7755
366.515,11.103,14.6589,,366.515,120.36,114.787,,366.515,9.22483,0.127705,12.7705,12.7231
368.411,10.829,13.8155,,368.411,120.326,118.882,,368.411,8.99972,0.116212,11.6212,12.3001
370.308,8.74,12.7034,,370.308,118.77,118.855,,370.308,7.35876,0.106881,10.6881,11.7838
372.207,10.541,10.9123,,372.207,125.223,119.59,,372.207,8.41778,0.0912475,9.12475,11.4805
374.107,7.316,9.71978,,374.107,125.543,122.975,,374.107,5.82749,0.0790384,7.90384,10.8888
376.007,13.561,10.2707,,376.007,125.651,124.338,,376.007,10.7926,0.0826031,8.26031,9.86747
377.909,14.174,12.8204,,377.909,131.77,125.91,,377.909,10.7566,0.101822,10.1822,9.42464
379.812,12.382,13.5722,,379.812,139.358,130.63,,379.812,8.88503,0.103898,10.3898,9.22659
381.716,5.426,11.9305,,381.716,139.065,134.212,,381.716,3.90177,0.0888926,8.88926,9.11456
383.62,10.808,9.17606,,383.62,145.735,138.843,,383.62,7.4162,0.0660894,6.60894,8.79638
385.526,10.137,10.8248,,385.526,137.409,139.962,,385.526,7.37725,0.0773413,7.73413,8.72351
387.433,8.429,10.1952,,387.433,141.168,139.514,,387.433,5.9709,0.0730764,7.30764,8.39206
389.341,15.514,11.0484,,389.341,145.868,142.1,,389.341,10.6356,0.0777512,7.77512,7.85344
391.25,12.737,12.3506,,391.25,151.691,146.125,,391.25,8.39667,0.0845209,8.45209,7.59579
393.161,12.217,11.2176,,393.161,160.884,150.977,,393.161,7.59367,0.0743,7.43,7.62791
395.072,13.264,11.7195,,395.072,183.671,161.883,,395.072,7.22161,0.0723953,7.23953,7.698
396.984,10.23,11.0436,,396.984,208.373,180.311,,396.984,4.90947,0.0612478,6.12478,7.5121
398.897,10.492,10.2812,,398.897,246.89,204.525,,398.897,4.24967,0.0502684,5.02684,7.17285
400.812,11.113,10.1518,,400.812,313.157,242.129,,400.812,3.5487,0.0419274,4.19274,6.44869
402.727,11.187,10.5802,,402.727,415.887,302.785,,402.727,2.68991,0.034943,3.4943,5.62885
404.644,16.268,12.274,,404.644,560.653,396.039,,404.644,2.90162,0.0309918,3.09918,4.82599
406.561,18.355,15.825,,406.561,774.298,531.273,,406.561,2.37053,0.029787,2.9787,4.08101
408.48,19.269,17.4942,,408.48,1093.481,734.641,,408.48,1.76217,0.0238133,2.38133,3.48592
410.4,13.059,16.8846,,410.4,1550.196,1031.22,,410.4,0.84241,0.0163734,1.63734,2.94509
412.32,11.092,15.0762,,412.32,2222.732,1462.76,,412.32,0.499026,0.0103067,1.03067,2.42463
414.242,9.647,13.4979,,414.242,3163.461,2085.57,,414.242,0.304951,0.00647204,0.647204,1.93903
416.165,14.48,13.2582,,416.165,4451.47,2958.03,,416.165,0.325286,0.00448209,0.448209,1.45214
418.089,13.258,13.8455,,418.089,6190.243,4157.76,,418.089,0.214176,0.00333004,0.333004,1.00275
420.014,21.061,15.1601,,420.014,8451.974,5767.44,,420.014,0.249184,0.00262856,0.262856,0.664572
421.939,14.081,16.0209,,421.939,11338.22,7870.72,,421.939,0.124191,0.00203551,0.203551,0.450593
423.866,17.765,15.2002,,423.866,14858.071,10548.9,,423.866,0.119565,0.00144094,0.144094,0.319898
425.795,15.834,16.8147,,425.795,18999.297,13820.5,,425.795,0.0833399,0.00121665,0.121665,0.241695
427.724,22.584,17.3889,,427.724,23830.084,17724.6,,427.724,0.094771,0.000981065,0.0981065,0.186629
429.654,30.919,22.9802,,429.654,29330.442,22281.3,,429.654,0.105416,0.00103137,0.103137,0.14982
431.585,30.68,27.1939,,431.585,35524.486,27504.1,,431.585,0.086363,0.000988721,0.0988721,0.122756
433.517,36.06,29.6583,,433.517,42427.542,33418,,433.517,0.084992,0.000887495,0.0887495,0.106983
435.451,47.605,35.2061,,435.451,49887.621,39995.1,,435.451,0.0954245,0.000880261,0.0880261,0.098021
437.385,52.906,43.191,,437.385,57254.674,47073.2,,437.385,0.0924047,0.000917528,0.0917528,0.0945564
439.32,59.005,50.3064,,439.32,62514.822,53892.5,,439.32,0.0943856,0.00093346,0.093346,0.0932899
441.257,59.361,55.9629,,441.257,64000,58913.9,,441.257,0.0927516,0.00094991,0.094991,0.0918202
443.194,59.491,58.4165,,443.194,63674.793,61526.8,,443.194,0.0934294,0.000949448,0.0949448,0.0920543
445.133,58.005,59.5504,,445.133,62227.685,62338.3,,445.133,0.0932141,0.000955278,0.0955278,0.0935166
447.072,55.962,58.8098,,447.072,59293.563,61635.3,,447.072,0.0943812,0.000954158,0.0954158,0.0945272
449.013,55.017,57.2597,,449.013,53142.307,59010.9,,449.013,0.103528,0.000970324,0.0970324,0.0952623
450.955,50.042,55.0693,,450.955,44477.703,53779.7,,450.955,0.11251,0.00102398,0.102398,0.0965167
452.897,43.84,50.0085,,452.897,36198.569,46764.1,,452.897,0.12111,0.00106938,0.106938,0.098623
454.841,34.293,44.3935,,454.841,29497.312,39472.2,,454.841,0.116258,0.00112468,0.112468,0.10169
456.786,33.785,39.1508,,456.786,24370.579,32900.3,,456.786,0.13863,0.00118998,0.118998,0.105631
458.732,32.442,36.7523,,458.732,20454.45,27407.8,,458.732,0.158606,0.00134094,0.134094,0.111989
460.679,28.439,32.8315,,460.679,17336.43,22959.3,,460.679,0.164042,0.00142999,0.142999,0.119826
462.627,21.959,29.4234,,462.627,14707.613,19335.7,,462.627,0.149304,0.00152172,0.152172,0.128496
464.576,22.685,25.3327,,464.576,12463.222,16334.4,,464.576,0.182016,0.00155088,0.155088,0.136769
466.526,23.447,23.9599,,466.526,10551.892,13810.2,,466.526,0.222207,0.00173494,0.173494,0.146948
468.477,20.176,23.2719,,468.477,9025.241,11703.9,,468.477,0.223551,0.00198839,0.198839,0.159588
470.429,23.35,22.36,,470.429,7818.333,9984.2,,470.429,0.298657,0.00223954,0.223954,0.174189
472.382,25.394,24.117,,472.382,6899.26,8608.48,,472.382,0.368068,0.00280154,0.280154,0.195858
474.336,19.379,23.0152,,474.336,6186.437,7525.12,,474.336,0.31325,0.00305845,0.305845,0.224046
476.292,12.224,20.3522,,476.292,5650.679,6682.84,,476.292,0.216328,0.00304544,0.304544,0.251369
478.248,11.087,15.7074,,478.248,5248.95,6036.29,,478.248,0.211223,0.00260215,0.260215,0.267218
480.205,17.359,15.8572,,480.205,4936.14,5542.55,,480.205,0.351672,0.002861,0.2861,0.279619
482.164,14.962,15.8487,,482.164,4730.842,5169.31,,482.164,0.316265,0.00306592,0.306592,0.290487
484.123,18.16,16.0066,,484.123,4621.49,4909.27,,484.123,0.392947,0.00326048,0.326048,0.294574
486.083,18.962,17.779,,486.083,4648.985,4759.32,,486.083,0.407874,0.00373562,0.373562,0.304127
488.045,20.043,18.8887,,488.045,4831.615,4743.7,,488.045,0.41483,0.00398184,0.398184,0.325193
490.007,21.231,19.5333,,490.007,5132.308,4858.48,,490.007,0.413674,0.00402045,0.402045,0.351004
491.971,25.845,21.3574,,491.971,5580.085,5109.18,,491.971,0.463165,0.00418019,0.418019,0.372044
493.936,23.612,22.434,,493.936,6134.021,5491.74,,493.936,0.384935,0.00408505,0.408505,0.39211
495.901,24.964,23.0533,,495.901,6805.139,5993.71,,495.901,0.36684,0.00384625,0.384625,0.400439
497.868,30.785,25.1117,,497.868,7560.527,6605.84,,497.868,0.407181,0.00380144,0.380144,0.399378
499.836,24.469,25.6279,,499.836,8398.979,7313.26,,499.836,0.291333,0.00350431,0.350431,0.392503
501.804,25.093,23.7624,,501.804,9288.26,8101.74,,501.804,0.270158,0.002933,0.2933,0.374462
503.774,32.301,26.0297,,503.774,10243.017,8963.53,,503.774,0.315347,0.00290395,0.290395,0.349435
505.745,35.971,30.522,,505.745,11150.964,9863.56,,505.745,0.322582,0.00309442,0.309442,0.331791
507.717,31.806,32.0314,,507.717,12055.608,10765.2,,507.717,0.263827,0.00297547,0.297547,0.317176
509.69,36.243,33.0743,,509.69,12973.535,11674.3,,509.69,0.279361,0.00283309,0.283309,0.300426
511.664,36.446,35.3921,,511.664,13871.801,12583.8,,511.664,0.262734,0.0028125,0.28125,0.292261
513.639,38.342,36.2134,,513.639,14671.604,13461.2,,513.639,0.261335,0.0026902,0.26902,0.289326
515.615,46.057,39.3876,,515.615,15397.06,14281.8,,515.615,0.299129,0.00275789,0.275789,0.284426
517.592,51.362,45.0829,,517.592,16069.592,15040.5,,517.592,0.319622,0.00299743,0.299743,0.281663
519.57,57.015,49.9826,,519.57,16637.44,15729,,519.57,0.342691,0.00317774,0.317774,0.286211
521.549,53.283,53.1288,,521.549,17143.404,16334.7,,521.549,0.310808,0.00325252,0.325252,0.294156
523.529,50.1,51.6402,,523.529,17567.495,16868.9,,523.529,0.285186,0.00306127,0.306127,0.301027
525.51,56.06,52.3958,,525.51,17912.017,17326.5,,525.51,0.312974,0.00302402,0.302402,0.307157
527.493,60.578,55.7839,,527.493,18129.767,17691.4,,527.493,0.334136,0.00315317,0.315317,0.312017
529.476,60.467,57.6393,,529.476,18298.241,17965.2,,529.476,0.330453,0.00320838,0.320838,0.314431
531.46,67.536,60.5468,,531.46,18376.976,18162.2,,531.46,0.367503,0.00333366,0.333366,0.315482
533.446,64.097,63.3226,,533.446,18394.461,18277.2,,533.446,0.348458,0.00346457,0.346457,0.320472
535.432,61.671,63.349,,535.432,18380.008,18335.7,,535.432,0.335533,0.00345495,0.345495,0.328667
537.419,64.295,62.456,,537.419,18314.218,18342.9,,537.419,0.351066,0.00340492,0.340492,0.335107
539.408,66.588,62.8929,,539.408,18241.306,18310.1,,539.408,0.36504,0.00343487,0.343487,0.339827
541.397,66.382,64.6289,,541.397,18116.433,18244.7,,541.397,0.366419,0.00354234,0.354234,0.344934
543.388,68.373,65.9706,,543.388,18010.748,18152.8,,543.388,0.379623,0.00363419,0.363419,0.348749
545.379,72.189,68.6185,,545.379,17860.086,18041.7,,545.379,0.404192,0.00380334,0.380334,0.353962
547.372,76.335,71.7506,,547.372,17739.367,17915.4,,547.372,0.430314,0.00400496,0.400496,0.3636
549.365,77.465,74.9623,,549.365,17602.812,17792,,549.365,0.440072,0.00421327,0.421327,0.377437
551.36,72.571,74.3203,,551.36,17418.725,17651.3,,551.36,0.416626,0.00421046,0.421046,0.391296
553.356,72.717,73.029,,553.356,17167.843,17468.1,,553.356,0.423565,0.0041807,0.41807,0.40266
555.352,77.815,73.6445,,555.352,16964.686,17256.7,,555.352,0.458688,0.0042676,0.42676,0.412902
557.35,77.173,75.9293,,557.35,16744.941,17055.5,,557.35,0.460874,0.0044519,0.44519,0.422944
559.349,73.798,75.6282,,559.349,16493.069,16829.6,,559.349,0.447449,0.00449376,0.449376,0.430438
561.348,78.041,76.5942,,561.348,16250.673,16589.7,,561.348,0.480232,0.00461697,0.461697,0.436866
563.349,74.471,76.2542,,563.349,15993.017,16348.1,,563.349,0.465647,0.0046644,0.46644,0.445621
565.351,73.206,74.9611,,565.351,15706.557,16090.7,,565.351,0.466086,0.00465866,0.465866,0.454101
567.354,75.154,74.5514,,567.354,15408.025,15816.3,,567.354,0.487759,0.00471359,0.471359,0.460404
569.358,76.016,74.8205,,569.358,15122.221,15533,,569.358,0.502677,0.00481686,0.481686,0.466217
571.363,78.825,76.0441,,571.363,14803.019,15236.5,,571.363,0.532493,0.00499092,0.499092,0.474006
573.368,77.585,77.7758,,573.368,14476.131,14927.8,,573.368,0.535951,0.00521012,0.521012,0.483757
575.375,76.092,77.5318,,575.375,14137.525,14603.3,,575.375,0.538227,0.0053092,0.53092,0.495749
577.383,74.203,77.0707,,577.383,13856.848,14288,,577.383,0.535497,0.00539407,0.539407,0.508888
579.392,71.169,74.2245,,579.392,13553.915,13989.5,,579.392,0.525081,0.00530571,0.530571,0.519669
581.402,74.721,73.5101,,581.402,13220.763,13677.3,,581.402,0.565179,0.0053746,0.53746,0.527964
583.413,77.501,74.7059,,583.413,12883.828,13351.8,,583.413,0.601537,0.0055952,0.55952,0.536011
585.425,76.385,76.417,,585.425,12565.841,13024.3,,585.425,0.607878,0.00586724,0.586724,0.546045
587.439,74.37,76.2958,,587.439,12218.756,12701.1,,587.439,0.608654,0.00600704,0.600704,0.5579
589.453,74.402,75.7898,,589.453,11860.998,12358.4,,589.453,0.627283,0.00613265,0.613265,0.571599
591.468,75.427,75.6413,,591.468,11532.923,12014.7,,591.468,0.654015,0.00629575,0.629575,0.589385
593.484,71.177,74.3736,,593.484,11205.222,11680.4,,593.484,0.635213,0.00636736,0.636736,0.606268
595.501,73.256,72.9545,,595.501,10855.083,11343.6,,595.501,0.674854,0.00643133,0.643133,0.619417
597.519,76.075,73.6548,,597.519,10499.447,10998.9,,597.519,0.724562,0.00669656,0.669656,0.632271
599.539,72.757,73.6515,,599.539,10162.072,10650.4,,599.539,0.715966,0.00691535,0.691535,0.648122
601.559,70.646,71.9284,,601.559,9798.777,10300.6,,601.559,0.720968,0.0069829,0.69829,0.662792
603.58,70.674,70.8936,,603.58,9459.679,9949.95,,603.58,0.747108,0.00712502,0.712502,0.676781
605.602,71.337,71.4132,,605.602,9106.042,9603.99,,605.602,0.783403,0.00743579,0.743579,0.695099
607.626,72.483,71.9427,,607.626,8752.966,9252.65,,607.626,0.828096,0.00777537,0.777537,0.716611
609.65,70.468,72.8611,,609.65,8417.211,8907.23,,609.65,0.837189,0.00818,0.818,0.74018
611.675,67.199,70.6867,,611.675,8081.183,8566.92,,611.675,0.831549,0.00825112,0.825112,0.764428
613.702,65.19,68.8681,,613.702,7750.473,8230.89,,613.702,0.84111,0.00836703,0.836703,0.788629
615.729,64.565,66.8129,,615.729,7428.717,7899.72,,615.729,0.869127,0.00845763,0.845763,0.810306
617.757,60.333,63.7813,,617.757,7107.102,7574.24,,617.757,0.848911,0.00842081,0.842081,0.826816
619.787,57.652,60.5992,,619.787,6777.411,7248.79,,619.787,0.850649,0.00835992,0.835992,0.83491
621.817,55.964,58.5263,,621.817,6479.382,6926.44,,621.817,0.863724,0.0084497,0.84497,0.839224
623.849,52.869,56.4579,,623.849,6197.39,6621.21,,623.849,0.853085,0.00852682,0.852682,0.843715
625.881,51.869,54.587,,625.881,5898.7,6323.7,,625.881,0.879329,0.00863213,0.863213,0.847654
627.915,52.182,53.0774,,627.915,5597.269,6026.39,,627.915,0.932276,0.0088075,0.88075,0.853038
629.949,54.163,53.8022,,629.949,5317.543,5729.63,,629.949,1.01857,0.00939017,0.939017,0.868236
631.985,48.392,52.683,,631.985,5078.235,5452.72,,631.985,0.95293,0.00966178,0.966178,0.891141
634.021,47.375,50.1385,,634.021,4845.814,5199.17,,634.021,0.977648,0.00964356,0.964356,0.912359
636.059,49.315,49.9637,,636.059,4614.617,4957.05,,636.059,1.06867,0.0100793,1.00793,0.938275
638.098,44.134,47.8725,,638.098,4396.936,4722.31,,638.098,1.00374,0.0101375,1.01375,0.966333
640.137,46.925,46.2855,,640.137,4190.298,4500.78,,640.137,1.11985,0.0102839,1.02839,0.988583
642.178,48.403,46.7146,,642.178,3977.679,4285.8,,642.178,1.21687,0.0108999,1.08999,1.00994
644.219,48.031,47.8727,,644.219,3776.175,4074.28,,644.219,1.27195,0.01175,1.175,1.04524
646.262,40,45.6927,,646.262,3579.935,3869.46,,646.262,1.11734,0.0118085,1.18085,1.08426
648.306,35.517,41.4843,,648.306,3390.26,3668.67,,648.306,1.04762,0.0113077,1.13077,1.10817
650.35,34.836,38.2535,,650.35,3226.089,3481.54,,650.35,1.07982,0.0109875,1.09875,1.12393
652.396,37.5,37.1905,,652.396,3054.629,3304.68,,652.396,1.22764,0.0112539,1.12539,1.13499
654.443,35.305,36.6388,,654.443,2884.204,3130.37,,654.443,1.22408,0.0117043,1.17043,1.14193
656.49,34.303,34.8477,,656.49,2731.414,2962.54,,656.49,1.25587,0.0117628,1.17628,1.14017
658.539,39.428,36.0253,,658.539,2580.731,2804.5,,658.539,1.52778,0.0128455,1.28455,1.15778
660.589,35.094,36.8841,,660.589,2427.603,2648.13,,660.589,1.44562,0.0139284,1.39284,1.20781
662.64,29.716,35.1996,,662.64,2288.091,2497.08,,662.64,1.29872,0.0140963,1.40963,1.26581
664.691,30.519,32.7943,,664.691,2164.156,2356.33,,664.691,1.4102,0.0139176,1.39176,1.31072
666.744,31.441,31.5789,,666.744,2045.696,2226.29,,666.744,1.53693,0.0141846,1.41846,1.35479
668.798,28.881,30.5874,,668.798,1925.154,2100.21,,668.798,1.50019,0.014564,1.4564,1.39938
670.853,31.046,30.1486,,670.853,1815.214,1979.64,,670.853,1.71032,0.0152293,1.52293,1.43035
672.909,24.571,29.9295,,672.909,1715.56,1867.31,,672.909,1.43224,0.0160282,1.60282,1.4658
674.965,24.063,26.6721,,674.965,1611.947,1762.64,,674.965,1.49279,0.0151319,1.51319,1.49381
677.023,28.316,26.3157,,677.023,1524.155,1660.97,,677.023,1.85782,0.0158436,1.58436,1.5237
679.082,27.999,27.9838,,679.082,1432.954,1566.48,,679.082,1.95394,0.0178641,1.78641,1.57768
681.142,22.582,26.8922,,681.142,1354.302,1476.52,,681.142,1.66743,0.0182132,1.82132,1.64254
683.203,21.471,24.6138,,683.203,1270.438,1392.78,,683.203,1.69005,0.0176724,1.76724,1.68015
685.265,22.026,23.3018,,685.265,1184.315,1306.68,,685.265,1.85981,0.0178329,1.78329,1.71965
687.327,28.021,24.282,,687.327,1118.864,1225.41,,687.327,2.50442,0.0198154,1.98154,1.7913
689.391,25.437,25.8179,,689.391,1065.445,1157.43,,689.391,2.38745,0.0223062,2.23062,1.88545
691.456,22.139,25.3537,,691.456,1002.409,1093.7,,691.456,2.20858,0.0231816,2.31816,1.97815
693.522,19.506,23.6389,,693.522,947.984,1031.78,,693.522,2.05763,0.0229108,2.29108,2.07454
695.589,21.956,22.6957,,695.589,895.937,974.024,,695.589,2.45062,0.023301,2.3301,2.17502
697.657,21.642,22.5968,,697.657,844.05,920.439,,697.657,2.56407,0.02455,2.455,2.28184
699.726,24.125,22.2957,,699.726,793.442,867.434,,699.726,3.04055,0.025703,2.5703,2.3625
701.796,23.295,23.3517,,701.796,752.07,817.616,,701.796,3.09745,0.0285607,2.85607,2.45527
703.867,17.101,21.131,,703.867,717.422,774.53,,703.867,2.38367,0.0272824,2.72824,2.54666
705.939,22.708,21.3004,,705.939,679.315,735.617,,705.939,3.34278,0.0289558,2.89558,2.64892
708.012,16.591,21.3871,,708.012,636.773,694.687,,708.012,2.60548,0.0307867,3.07867,2.77431
710.085,20.024,20.3409,,710.085,606.364,655.382,,710.085,3.30231,0.0310367,3.10367,2.88406
712.16,20.387,20.2662,,712.16,566.369,620.068,,712.16,3.5996,0.0326839,3.26839,2.98131
714.236,21.94,20.292,,714.236,532.352,582.695,,714.236,4.12133,0.0348243,3.48243,3.09267
716.313,21.97,20.8453,,716.313,505.864,550.157,,716.313,4.34306,0.0378896,3.78896,3.27244
718.391,15.479,18.5944,,718.391,472.365,517.728,,718.391,3.27692,0.0359153,3.59153,3.41385
720.47,12.552,15.5338,,720.47,447.827,487.368,,720.47,2.80287,0.0318729,3.18729,3.46381
722.55,15.442,15.2523,,722.55,433.743,462.584,,722.55,3.56017,0.0329719,3.29719,3.47982
724.631,18.635,16.1621,,724.631,409.02,440.922,,724.631,4.55601,0.0366552,3.66552,3.51189
726.713,17.201,16.8918,,726.713,388.541,418.692,,726.713,4.42707,0.0403442,4.03442,3.5763
728.796,15.661,16.3608,,728.796,371.186,398.504,,728.796,4.21918,0.0410555,4.10555,3.63474
730.88,8.784,14.3667,,730.88,349.794,379.032,,730.88,2.51119,0.0379035,3.79035,3.72859
732.965,14.782,13.082,,732.965,336.604,360.43,,732.965,4.39151,0.0362954,3.62954,3.79867
735.051,15.916,14.4556,,735.051,326.387,344.836,,735.051,4.87642,0.0419202,4.19202,3.92206
737.138,15.926,14.8281,,737.138,309.643,331.615,,737.138,5.14334,0.0447148,4.47148,4.0307
739.226,12.041,14.0725,,739.226,297.074,317.355,,739.226,4.0532,0.0443429,4.43429,4.10902
741.315,14.395,13.5551,,741.315,293.86,307.387,,741.315,4.89859,0.0440979,4.40979,4.18512
743.405,13.428,14.6695,,743.405,277.141,297.104,,743.405,4.84519,0.0493749,4.93749,4.4097
745.496,14.422,14.2427,,745.496,267.722,284.507,,745.496,5.38693,0.0500611,5.00611,4.61417
747.588,13.642,14.2506,,747.588,263.788,275.873,,747.588,5.17158,0.0516562,5.16562,4.76044
749.681,10.716,12.2296,,749.681,251.092,266.248,,749.681,4.26776,0.045933,4.5933,4.81753
751.775,16.42,12.6719,,751.775,245.16,256.03,,751.775,6.69767,0.0494937,4.94937,4.8733
753.87,15.878,14.1077,,753.87,247.608,251.097,,753.87,6.41256,0.0561843,5.61843,5.03331
755.966,17.503,15.4651,,755.966,236.574,246.921,,755.966,7.39853,0.0626318,6.26318,5.2336
758.063,15.734,15.8947,,758.063,221.635,236.698,,758.063,7.09906,0.0671519,6.71519,5.52518
760.161,15.295,14.8735,,760.161,205.981,223.779,,760.161,7.42544,0.066465,6.6465,5.83296
762.26,16.864,14.7258,,762.26,201.861,212.771,,762.26,8.35426,0.0692096,6.92096,6.251
764.36,20.327,15.3759,,764.36,202.38,207.356,,764.36,10.044,0.0741522,7.41522,6.61506
766.461,18.405,16.2696,,766.461,204.113,204.812,,766.461,9.01706,0.0794371,7.94371,7.00067
768.562,12.486,14.7333,,768.562,201.143,203.635,,768.562,6.20752,0.0723511,7.23511,7.20459
770.665,16.129,14.3696,,770.665,193.588,199.951,,770.665,8.33161,0.0718654,7.18654,7.28762
772.769,11.219,15.0391,,772.769,193.397,196.739,,772.769,5.80102,0.076442,7.6442,7.4574
774.874,9.028,12.2906,,774.874,185.475,193.222,,774.874,4.8675,0.0636091,6.36091,7.39661
776.98,10.217,10.8456,,776.98,189.418,190.42,,776.98,5.39389,0.0569563,5.69563,7.01542
779.087,12.04,10.6554,,779.087,181.983,187.565,,779.087,6.616,0.0568092,5.68092,6.61532
781.195,16.422,11.8311,,781.195,180.753,184.49,,781.195,9.08533,0.0641289,6.41289,6.44824
783.304,14.409,15.1183,,783.304,173.935,181.758,,783.304,8.28413,0.0831783,8.31783,6.50308
785.414,12.311,14.2078,,785.414,167.726,177.097,,785.414,7.33995,0.0802265,8.02265,6.69273
787.525,14.332,13.6236,,787.525,158.788,170.284,,787.525,9.02587,0.0800051,8.00051,7.0717
789.637,19.03,15.2378,,789.637,156.031,163.472,,789.637,12.1963,0.0932138,9.32138,7.67139
791.749,17.934,17.6327,,791.749,153.463,159.225,,791.749,11.6862,0.110741,11.0741,8.54944
793.863,14.173,16.8163,,793.863,150.563,156.128,,793.863,9.41334,0.107709,10.7709,9.22453
795.978,14.446,15.6178,,795.978,150.986,153.586,,795.978,9.56777,0.101688,10.1688,9.61533
798.094,14.015,14.7825,,798.094,150.643,152.262,,798.094,9.30345,0.0970861,9.70861,9.96892
800.211,8.416,13.4796,,800.211,146.816,150.657,,800.211,5.73235,0.0894724,8.94724,10.1093
802.329,10.006,11.0599,,802.329,147.662,149.629,,802.329,6.77629,0.0739155,7.39155,9.6525
804.448,10.034,10.6536,,804.448,146.668,148.293,,804.448,6.8413,0.0718412,7.18412,8.93057
806.567,6.331,9.495,,806.567,155.107,149.196,,806.567,4.0817,0.0636411,6.36411,8.21872
808.688,15.98,7.69646,,808.688,147.652,150.275,,808.688,10.8227,0.0512159,5.12159,7.3487
810.81,15.762,12.602,,810.81,146.27,148.305,,810.81,10.776,0.0849733,8.49733,7.00087
812.933,15.844,15.0674,,812.933,144.419,147.154,,812.933,10.9709,0.102392,10.2392,7.31322
815.057,16.927,16.3475,,815.057,153.045,147.675,,815.057,11.0601,0.110699,11.0699,7.97926
817.181,19.564,17.673,,817.181,155.736,151.328,,817.181,12.5623,0.116786,11.6786,8.81371
819.307,14.861,17.5836,,819.307,151.672,152.245,,819.307,9.79812,0.115495,11.5495,9.97071
821.434,15.6,16.1874,,821.434,160.59,153.76,,821.434,9.71418,0.105277,10.5277,10.7282
823.562,12.061,15.4595,,823.562,163.951,158.246,,823.562,7.35647,0.0976928,9.76928,10.8544
825.69,14.689,12.9899,,825.69,174.003,163.075,,825.69,8.44181,0.0796558,7.96558,10.452
827.82,14.063,12.8187,,827.82,189.855,173.097,,827.82,7.40723,0.0740554,7.40554,9.77658
829.951,14.534,13.9619,,829.951,205.274,186.255,,829.951,7.08029,0.0749613,7.49613,8.98578
832.082,10.336,12.7037,,832.082,215.495,198.43,,832.082,4.7964,0.0640214,6.40214,8.18966
834.215,17.235,13.1828,,834.215,216.898,206.786,,834.215,7.94613,0.0637509,6.37509,7.42387
836.349,14.753,14.7214,,836.349,219.103,211.731,,836.349,6.73336,0.069529,6.9529,7.03764
838.483,10.368,13.1401,,838.483,241.528,220.303,,838.483,4.29267,0.0596454,5.96454,6.75651
840.619,8.683,11.3431,,840.619,278.337,239.836,,840.619,3.1196,0.0472952,4.72952,6.29177
842.755,11.637,10.6152,,842.755,333.384,272.42,,842.755,3.49057,0.0389662,3.89662,5.71962
844.893,18.922,13.317,,844.893,400.011,320.492,,844.893,4.73037,0.0415517,4.15517,5.32423
847.032,12.662,14.9419,,847.032,474.535,380.132,,847.032,2.6683,0.0393072,3.93072,4.8471
849.171,11.107,12.2518,,849.171,556.983,450.155,,849.171,1.99414,0.0272168,2.72168,4.17895
851.312,21.359,14.5517,,851.312,630.508,525.136,,851.312,3.38759,0.0277103,2.77103,3.66161
853.453,18.144,17.1033,,853.453,703.737,599.605,,853.453,2.57824,0.0285243,2.85243,3.39144
855.596,15.392,16.1627,,855.596,769.709,671.021,,855.596,1.99972,0.0240868,2.40868,3.12859
857.739,12.851,14.7447,,857.739,829.831,738.184,,857.739,1.54863,0.0199743,1.99743,2.72097
859.884,12.604,12.9815,,859.884,871.417,796.955,,859.884,1.44638,0.0162889,1.62889,2.40621
862.029,14.328,12.8254,,862.029,905.793,845.071,,862.029,1.58182,0.0151767,1.51767,2.19736
864.175,15.83,13.7663,,864.175,932.101,884.121,,864.175,1.69831,0.0155707,1.55707,1.94465
866.323,13.595,14.3754,,866.323,956.712,915.345,,866.323,1.42101,0.0157049,1.57049,1.73589
868.471,11.038,13.2024,,868.471,993.127,945.857,,868.471,1.11144,0.0139581,1.39581,1.58613
870.621,13.181,12.9817,,870.621,1031.509,979.757,,870.621,1.27784,0.01325,1.325,1.49156
872.771,11.671,13.3908,,872.771,1082.553,1018.45,,872.771,1.0781,0.0131482,1.31482,1.44488
874.922,10.293,11.3965,,874.922,1157.861,1070.42,,874.922,0.888967,0.0106468,1.06468,1.37144
877.075,14.431,12.142,,877.075,1234.603,1135.19,,877.075,1.16888,0.010696,1.0696,1.27091
879.228,7.948,11.7706,,879.228,1331.316,1211.7,,879.228,0.597003,0.00971408,0.971408,1.18163
881.382,5.25,8.70775,,881.382,1420.587,1298.52,,881.382,0.369566,0.00670592,0.670592,1.07053
883.537,8.851,7.71651,,883.537,1504.383,1384.85,,883.537,0.588348,0.00557208,0.557208,0.92901
885.694,11.975,10.0885,,885.694,1575.576,1466.43,,885.694,0.76004,0.00687964,0.687964,0.822028
887.851,14.578,11.7823,,887.851,1624.133,1535.65,,887.851,0.897587,0.00767253,0.767253,0.767377
890.009,11.596,12.4741,,890.009,1658.197,1592.38,,890.009,0.699314,0.00783363,0.783363,0.715679
892.168,13.303,11.861,,892.168,1654.916,1627.2,,892.168,0.803847,0.00728921,0.728921,0.697068
894.328,18.224,13.5968,,894.328,1623.094,1635.81,,894.328,1.12279,0.00831199,0.831199,0.732771
896.489,12.644,14.806,,896.489,1559.063,1613.7,,896.489,0.811,0.00917519,0.917519,0.790498
898.651,9.324,12.8755,,898.651,1463.155,1561.85,,898.651,0.637253,0.00824371,0.824371,0.813593
900.815,7.078,10.3124,,900.815,1371.84,1486.62,,900.815,0.515949,0.00693684,0.693684,0.802541
902.979,9.79,8.33221,,902.979,1278.203,1404.37,,902.979,0.765919,0.00593306,0.593306,0.774606
905.144,10.121,8.62177,,905.144,1176.028,1312.13,,905.144,0.860609,0.00657081,0.657081,0.751553
907.31,14.785,9.70667,,907.31,1086.914,1218.25,,907.31,1.36027,0.00796772,0.796772,0.725109
909.477,13.661,11.9815,,909.477,995.007,1125.59,,909.477,1.37296,0.0106447,1.06447,0.747504
911.644,13.568,11.8956,,911.644,906.569,1034.2,,911.644,1.49663,0.0115022,1.15022,0.818983
913.813,16.281,13.06,,913.813,837.096,949.149,,913.813,1.94494,0.0137597,1.37597,0.945348
915.983,13.36,13.7476,,915.983,779.347,876.084,,915.983,1.71426,0.0156921,1.56921,1.11985
918.154,14.62,13.5715,,918.154,720.052,810.915,,918.154,2.03041,0.016736,1.6736,1.29239
920.326,15.244,14.4169,,920.326,664.393,749.018,,920.326,2.29443,0.0192477,1.92477,1.46641
922.499,11.958,13.5001,,922.499,626.552,695.278,,922.499,1.90854,0.0194168,1.94168,1.62248
924.673,9.764,12.848,,924.673,585.166,648.683,,924.673,1.66859,0.0198063,1.98063,1.76197
926.847,7.841,10.825,,926.847,544.415,604.98,,926.847,1.44026,0.0178931,1.78931,1.82616
929.023,18.828,11.6936,,929.023,503.118,561.581,,929.023,3.74226,0.0208226,2.08226,1.88979
931.2,21.451,16.1227,,931.2,461.003,519.111,,931.2,4.65312,0.0310584,3.10584,2.0854
933.377,15.709,17.038,,933.377,423.069,477.983,,933.377,3.71311,0.0356456,3.56456,2.37752
935.556,14.968,15.6622,,935.556,394.863,441.516,,935.556,3.79068,0.0354738,3.54738,2.67805
937.736,15.318,14.5787,,937.736,366.565,410.534,,937.736,4.1788,0.0355115,3.55115,2.99324
939.916,17.212,15.6612,,939.916,346.448,382.393,,939.916,4.96813,0.0409557,4.09557,3.39314
942.098,8.743,14.3478,,942.098,328.331,358.575,,942.098,2.66286,0.0400134,4.00134,3.70038
944.28,6.364,11.1798,,944.28,309.213,337.735,,944.28,2.05813,0.0331023,3.31023,3.72378
946.464,13.713,11.1756,,946.464,292.368,318.275,,946.464,4.69032,0.0351129,3.51129,3.69018
948.648,12.243,12.9884,,948.648,277.341,301.738,,948.648,4.41442,0.0430452,4.30452,3.79899
950.834,8.5,11.0816,,950.834,265.768,285.869,,950.834,3.19828,0.0387645,3.87645,3.85539
953.02,16.393,12.435,,953.02,255.012,272.17,,953.02,6.42832,0.0456885,4.56885,3.85689
955.207,8.468,12.8305,,955.207,249.711,262,,955.207,3.39112,0.0489714,4.89714,4.08301
957.396,16.724,11.7155,,957.396,236.5,252.082,,957.396,7.07146,0.0464749,4.64749,4.31757
959.585,20.344,15.3717,,959.585,236.106,242.885,,959.585,8.61647,0.063288,6.3288,4.6832
961.775,19.236,17.0006,,961.775,229.44,237.911,,961.775,8.38389,0.071458,7.1458,5.21025
963.966,14.764,17.4257,,963.966,221.773,231.494,,963.966,6.65726,0.0752751,7.52751,5.88132
966.159,12.292,15.5428,,966.159,219.105,225.236,,966.159,5.6101,0.0690066,6.90066,6.30504
968.352,6.002,12.7136,,968.352,220.619,222.053,,968.352,2.72053,0.0572547,5.72547,6.59587
970.546,6.256,8.53052,,970.546,218.496,220.446,,970.546,2.86321,0.0386966,3.86966,6.39707
972.741,14.511,10.0613,,972.741,219.555,220.312,,972.741,6.60928,0.0456686,4.56686,5.90441
974.937,15.947,12.1586,,974.937,218.158,219.266,,974.937,7.30984,0.0554514,5.54514,5.49864
977.134,19.473,15.0753,,977.134,219.124,219.024,,977.134,8.88675,0.0688297,6.88297,5.35026
979.332,13.454,16.3232,,979.332,221.817,219.666,,979.332,6.06536,0.074309,7.4309,5.53415
981.531,16.707,15.5262,,981.531,227.964,223.572,,981.531,7.32879,0.0694462,6.94462,5.93561
983.731,14.142,15.1231,,983.731,233.383,227.857,,983.731,6.05957,0.066371,6.6371,6.46005
985.932,9.485,12.4917,,985.932,240.438,232.49,,985.932,3.94488,0.0537303,5.37303,6.59228
988.134,12.828,12.0589,,988.134,249.583,238.987,,988.134,5.13977,0.0504583,5.04583,6.37764
990.336,13.352,13.0365,,990.336,255.455,246.471,,990.336,5.22675,0.0528926,5.28926,5.97122
992.54,12.513,12.7418,,992.54,261.962,253.353,,992.54,4.77665,0.0502929,5.02929,5.60521
994.745,13.219,12.8454,,994.745,274.288,260.722,,994.745,4.81939,0.0492686,4.92686,5.25456
996.951,11.378,13.0446,,996.951,286.612,270.187,,996.951,3.96983,0.04828,4.828,5.0232
999.157,9.81,10.9988,,999.157,293.481,280.193,,999.157,3.34264,0.0392543,3.92543,4.86069
1001.365,11.333,10.5339,,1001.365,301.168,289.222,,1001.365,3.76302,0.0364213,3.64213,4.59586
1003.573,6.674,8.79256,,1003.573,303.763,296.508,,1003.573,2.19711,0.0296537,2.96537,4.22382
1005.783,12.377,8.62415,,1005.783,310.267,301.218,,1005.783,3.98914,0.0286309,2.86309,3.82362
1007.993,10.535,9.89848,,1007.993,329.769,311.349,,1007.993,3.19466,0.0317922,3.17922,3.48434
1010.205,14.238,10.2904,,1010.205,350.362,326.477,,1010.205,4.0638,0.0315196,3.15196,3.24263
1012.417,9.031,10.9586,,1012.417,374.227,345.141,,1012.417,2.41324,0.0317511,3.17511,3.15395
1014.631,4.642,8.44254,,1014.631,403,368.867,,1014.631,1.15186,0.0228878,2.28878,2.99862
1016.845,15.98,10.1944,,1016.845,427.136,393.454,,1016.845,3.7412,0.0259099,2.59099,2.91427
1019.06,10.318,11.3368,,1019.06,460.817,418.868,,1019.06,2.23907,0.0270652,2.70652,2.85781
1021.277,10.927,10.9246,,1021.277,488.77,448.532,,1021.277,2.23561,0.0243563,2.43563,2.73746
1023.494,8.627,10.1308,,1023.494,508.176,474.235,,1023.494,1.69764,0.0213624,2.13624,2.53136
1025.712,17.782,10.8934,,1025.712,529.673,497.215,,1025.712,3.35717,0.0219088,2.19088,2.38532
1027.931,12.845,13.1468,,1027.931,553.986,519.436,,1027.931,2.31865,0.0253098,2.53098,2.42377
1030.151,10.452,12.3553,,1030.151,563.39,539.993,,1030.151,1.8552,0.0228805,2.28805,2.35658
1032.372,11.605,11.4496,,1032.372,575.884,555.399,,1032.372,2.01516,0.0206152,2.06152,2.26491
1034.594,16.121,12.2191,,1034.594,581.558,567.714,,1034.594,2.77204,0.0215233,2.15233,2.22381
1036.817,13.727,14.2381,,1036.817,588.232,576.536,,1036.817,2.3336,0.024696,2.4696,2.28664
1039.041,16.969,15.1626,,1039.041,588.632,583.337,,1039.041,2.88279,0.0259929,2.59929,2.3074
1041.266,15.483,16.0202,,1041.266,590.031,586.847,,1041.266,2.6241,0.0272988,2.72988,2.34833
1043.492,15.542,15.4194,,1043.492,586.793,588.034,,1043.492,2.64863,0.0262219,2.62219,2.444
1045.718,17.51,16.5899,,1045.718,596.644,589.947,,1045.718,2.93475,0.028121,2.8121,2.57251
1047.946,15.295,15.9425,,1047.946,593.313,592.824,,1047.946,2.5779,0.0268925,2.68925,2.65521
1050.175,15.716,14.7872,,1050.175,601.617,594.302,,1050.175,2.61229,0.0248817,2.48817,2.66935
1052.405,11.591,13.6955,,1052.405,602.011,599.239,,1052.405,1.92538,0.0228548,2.28548,2.62042
1054.635,10.465,12.5623,,1054.635,596.403,597.902,,1054.635,1.75469,0.0210107,2.10107,2.5165
1056.867,11.975,12.1119,,1056.867,592.068,595.968,,1056.867,2.02257,0.0203231,2.03231,2.39579
1059.099,13.121,13.8281,,1059.099,580.549,590.142,,1059.099,2.2601,0.0234318,2.34318,2.29202
1061.333,11.266,13.3507,,1061.333,581.393,583.967,,1061.333,1.93776,0.022862,2.2862,2.23376
1063.567,18.593,14.9555,,1063.567,572.872,579.42,,1063.567,3.24558,0.0258112,2.58112,2.22686
1065.802,14.645,15.6642,,1065.802,567.258,573.583,,1065.802,2.58172,0.0273094,2.73094,2.32583
1068.039,16.97,15.6596,,1068.039,565.462,569.197,,1068.039,3.00109,0.0275118,2.75118,2.45045
1070.276,12.113,13.9494,,1070.276,558.937,565.166,,1070.276,2.16715,0.0246819,2.46819,2.53786
1072.514,17.527,13.095,,1072.514,559.139,561.587,,1072.514,3.13464,0.0233179,2.33179,2.54616
1074.753,11.122,13.9638,,1074.753,550.884,558.469,,1074.753,2.01894,0.0250037,2.50037,2.58633
1076.993,9.262,11.6413,,1076.993,535.083,550.983,,1076.993,1.73095,0.0211283,2.11283,2.5007
1079.234,9.765,11.087,,1079.234,534.007,542.727,,1079.234,1.82863,0.0204282,2.04282,2.36992
1081.476,11.722,11.2709,,1081.476,529.385,537.937,,1081.476,2.21427,0.0209522,2.09522,2.24679
1083.719,16.405,13.3409,,1083.719,527.215,532.68,,1083.719,3.11163,0.0250449,2.50449,2.23299
1085.963,11.815,13.8529,,1085.963,520.772,529.228,,1085.963,2.26875,0.0261757,2.61757,2.26109
1088.208,10.133,11.7937,,1088.208,513.782,522.837,,1088.208,1.97224,0.0225572,2.25572,2.27193
1090.454,8.359,10.898,,1090.454,508.245,517.41,,1090.454,1.64468,0.0210627,2.10627,2.30346
1092.772,12.312,10.8142,,1092.772,503.615,512.319,,1092.772,2.44472,0.0211083,2.11083,2.31858
1094.985,12.445,12.591,,1094.985,503.075,508.097,,1094.985,2.47379,0.0247807,2.47807,2.35389
1097.197,11.124,12.8377,,1097.197,501.351,505.686,,1097.197,2.2188,0.0253867,2.53867,2.33704
1099.409,8.528,10.5376,,1099.409,492.535,500.414,,1099.409,1.73145,0.0210579,2.10579,2.28866
1101.622,8.932,9.26101,,1101.622,486.626,494.006,,1101.622,1.8355,0.0187468,1.87468,2.22533
1103.834,9.88,8.83419,,1103.834,478.08,487.981,,1103.834,2.0666,0.0181035,1.81035,2.1775
1106.047,15.373,10.9011,,1106.047,472.804,481.235,,1106.047,3.25145,0.0226524,2.26524,2.14051
1108.259,13.955,12.4258,,1108.259,469.89,475.543,,1108.259,2.96984,0.0261297,2.61297,2.15518
1110.472,14.264,12.7317,,1110.472,464.157,470.658,,1110.472,3.0731,0.0270509,2.70509,2.21324
1112.684,14.845,14.2139,,1112.684,458.24,466.471,,1112.684,3.23957,0.0304712,3.04712,2.40056
1114.897,11.698,13.7101,,1114.897,439.867,458.028,,1114.897,2.65944,0.029933,2.9933,2.61849
1117.109,12.458,12.763,,1117.109,433.31,445.914,,1117.109,2.87508,0.0286221,2.86221,2.79453
1119.321,14.673,13.0242,,1119.321,426.297,436.608,,1119.321,3.44197,0.0298305,2.98305,2.87234
1121.534,12.431,13.1963,,1121.534,422.645,429.973,,1121.534,2.94124,0.030691,3.0691,2.95504
1123.746,7.371,11.2023,,1123.746,415.719,425.571,,1123.746,1.77307,0.0263229,2.63229,2.94322
1125.959,9.036,10.2287,,1125.959,403.973,416.838,,1125.959,2.23678,0.0245388,2.45388,2.83722
1128.171,10.064,9.88341,,1128.171,398.589,409.039,,1128.171,2.52491,0.0241625,2.41625,2.74038
1130.384,9.455,10.1567,,1130.384,395.84,403.913,,1130.384,2.38859,0.0251457,2.51457,2.65967
1132.596,12.572,10.4387,,1132.596,378.543,395.556,,1132.596,3.32116,0.0263899,2.63899,2.56043
1134.809,13.052,12.1329,,1134.809,374.335,384.54,,1134.809,3.48672,0.0315517,3.15517,2.56128
1137.021,14.349,12.3813,,1137.021,371.398,379.121,,1137.021,3.86351,0.032658,3.2658,2.68926
1139.233,15.372,14.2537,,1139.233,349.913,370.158,,1139.233,4.39309,0.0385071,3.85071,2.92975
1141.446,12.666,13.9605,,1141.446,346.154,357.45,,1141.446,3.65907,0.0390559,3.90559,3.21873
1143.658,12.687,13.5487,,1143.658,340.03,350.921,,1143.658,3.73114,0.0386089,3.86089,3.47971
1145.871,6.071,11.8697,,1145.871,331.449,342.534,,1145.871,1.83165,0.0346525,3.46525,3.64126
1148.083,9.18,10.4971,,1148.083,325.32,335.189,,1148.083,2.82184,0.0313169,3.13169,3.64683
1150.296,13.107,10.5267,,1150.296,310.099,325.84,,1150.296,4.22671,0.0323065,3.23065,3.57749
1152.508,11.851,11.832,,1152.508,304.513,314.779,,1152.508,3.89179,0.0375883,3.75883,3.51618
1154.721,8.412,10.9047,,1154.721,298.015,308.209,,1154.721,2.82268,0.035381,3.5381,3.47197
1156.933,7.972,10.2372,,1156.933,288.97,300.036,,1156.933,2.75876,0.03412,3.412,3.4115
1159.145,11.167,8.97837,,1159.145,283.56,294.558,,1159.145,3.93814,0.0304808,3.04808,3.38488
1161.358,14.998,10.9934,,1161.358,274.875,287.645,,1161.358,5.4563,0.0382185,3.82185,3.48084
1163.57,11.1,11.2123,,1163.57,266.734,280.18,,1163.57,4.16145,0.0400183,4.00183,3.58783
1165.783,10.202,11.1214,,1165.783,261.591,272.169,,1165.783,3.89998,0.0408623,4.08623,3.65159
1167.995,5.03,9.94835,,1167.995,257.901,265.682,,1167.995,1.95036,0.0374445,3.74445,3.72728
1170.208,4.766,7.35342,,1170.208,253.846,260.44,,1170.208,1.87752,0.0282346,2.82346,3.70497
1172.42,9.592,7.76405,,1172.42,242.062,253.921,,1172.42,3.96262,0.0305767,3.05767,3.6219
1174.633,8.144,8.92052,,1174.633,239.549,247.296,,1174.633,3.39972,0.0360722,3.60722,3.52723
1176.845,5.786,8.33437,,1176.845,234.216,242.148,,1176.845,2.47037,0.0344185,3.44185,3.41571
1179.057,10.156,8.38997,,1179.057,225.701,236.343,,1179.057,4.49976,0.0354991,3.54991,3.30158
1181.27,8.706,8.87422,,1181.27,220.366,229.356,,1181.27,3.9507,0.038692,3.8692,3.38545
1183.482,10.346,8.57453,,1183.482,216.211,224.618,,1183.482,4.78514,0.0381739,3.81739,3.56834
1185.695,6.258,8.79562,,1185.695,208.601,218.908,,1185.695,2.99999,0.0401795,4.01795,3.68753
1187.907,2.443,5.68816,,1187.907,205.99,213.488,,1187.907,1.18598,0.026644,2.6644,3.60839
1190.12,6.082,5.0755,,1190.12,198.65,208.843,,1190.12,3.06167,0.0243029,2.43029,3.41881
1192.332,5.72,5.40077,,1192.332,194.219,202.265,,1192.332,2.94513,0.0267015,2.67015,3.20894
1194.545,5.994,5.92456,,1194.545,193.06,197.549,,1194.545,3.10473,0.0299903,2.99903,3.0338
1196.757,9.995,6.98539,,1196.757,191.265,194.712,,1196.757,5.22573,0.0358755,3.58755,2.91837
1198.969,8.633,8.16069,,1198.969,187.559,192.304,,1198.969,4.60282,0.0424364,4.24364,3.02399
1201.182,9.997,8.48266,,1201.182,188.127,189.623,,1201.182,5.31396,0.0447342,4.47342,3.39329
1203.394,5.089,7.74543,,1203.394,189.694,189.042,,1203.394,2.68274,0.040972,4.0972,3.73563
1205.607,2.272,5.84207,,1205.607,193.898,190.265,,1205.607,1.17175,0.030705,3.0705,3.86035
1207.819,3.728,4.22487,,1207.819,189.193,191.079,,1207.819,1.97047,0.0221107,2.21107,3.71311
1210.032,8.184,5.61933,,1210.032,182.125,187.297,,1210.032,4.49362,0.0300022,3.00022,3.49088
1212.244,5.095,6.11271,,1212.244,182.512,184.81,,1212.244,2.7916,0.0330757,3.30757,3.31323
1214.456,1.37,5.45645,,1214.456,171.173,181.129,,1214.456,0.80036,0.0301247,3.01247,3.06097
1216.669,3.1,3.15166,,1216.669,158.562,173.626,,1216.669,1.95507,0.018152,1.8152,2.76039
1218.881,4.922,3.93702,,1218.881,149.498,164.236,,1218.881,3.29235,0.0239717,2.39717,2.66162
1221.094,2.381,4.02507,,1221.094,137.617,153.905,,1221.094,1.73016,0.0261529,2.61529,2.6992
1223.306,8.023,4.44691,,1223.306,130.102,143.31,,1223.306,6.1667,0.03103,3.103,2.59763
1225.519,9.576,7.11282,,1225.519,112.498,132.02,,1225.519,8.51215,0.0538767,5.38767,2.88198
1227.731,6.402,6.85635,,1227.731,103.806,118.791,,1227.731,6.16727,0.0577176,5.77176,3.52584
1229.944,9.23,7.71744,,1229.944,97.388,110.104,,1229.944,9.47755,0.0700923,7.00923,4.41417
1232.156,6.15,8.92299,,1232.156,86.883,100.672,,1232.156,7.07848,0.0886338,8.86338,5.51908
1234.368,3.981,8.30701,,1234.368,89.199,93.3588,,1234.368,4.46305,0.0889794,8.89794,6.73035
1236.581,1.633,5.09535,,1236.581,82.519,88.89,,1236.581,1.97894,0.057322,5.7322,7.21276
1238.793,7.195,4.43838,,1238.793,82.296,84.0546,,1238.793,8.74283,0.0528035,5.28035,7.0745
1241.006,3.669,5.4042,,1241.006,74.533,80.6064,,1241.006,4.92265,0.0670443,6.70443,7.13572
1242.586,-1.432,3.82029,,1242.586,64.806,76.3368,,1242.586,-2.20967,0.0500452,5.00452,