File: public_html/data/backup/makrolon-bright_green_634.csv
wavelength_nm,intensity,intensity_smoothed,,wavelength_nm2,intensity_i0,intensity_i0_smoothed,,wavelength_nm3,,transmission,transmission_perc,transmission_perc_smoothed
173.232,28.506,#N/A,,173.232,26.024,#N/A,,173.232,109.537,#N/A,#N/A,#N/A
175.084,37.945,30.6448,,175.084,37.766,29.5889,,175.084,100.474,1.03569,103.569,#N/A
176.935,38.671,35.0733,,176.935,39.857,35.1131,,176.935,97.0244,0.998867,99.8867,#N/A
178.787,35.488,36.1026,,178.787,37.584,36.6576,,178.787,94.4232,0.984861,98.4861,#N/A
180.639,37.668,36.479,,180.639,37.128,36.8855,,180.639,101.454,0.988979,98.8979,#N/A
182.491,38.212,36.6339,,182.491,35.582,36.7372,,182.491,107.391,0.997189,99.7189,#N/A
184.342,39.029,37.1935,,184.342,43.491,38.4251,,184.342,89.7404,0.967948,96.7948,99.6209
186.194,40.028,37.7164,,186.194,45.403,41.4134,,186.194,88.1616,0.91073,91.073,97.8091
188.046,41.572,38.8263,,188.046,44.584,44.1242,,188.046,93.2442,0.879931,87.9931,95.7709
189.897,41.117,40.2294,,189.897,43.31,43.8577,,189.897,94.9365,0.917271,91.7271,94.307
191.749,35.843,39.5424,,191.749,43.4,43.6501,,191.749,82.5876,0.905894,90.5894,92.7994
193.601,37.932,37.8681,,193.601,44.945,44.6684,,193.601,84.3965,0.847761,84.7761,90.1029
195.453,39.567,38.4589,,195.453,40.853,43.7579,,195.453,96.8521,0.878902,87.8902,88.5764
197.304,35.293,37.837,,197.304,44.67,42.9419,,197.304,79.0083,0.881121,88.1121,88.4038
199.156,40.201,36.6523,,199.156,41.124,43.5822,,199.156,97.7556,0.840993,84.0993,87.488
201.008,41.473,38.6612,,201.008,35.305,40.7299,,201.008,117.471,0.94921,94.921,87.4604
202.86,36.744,38.6576,,202.86,44.395,41.25,,202.86,82.7661,0.937155,93.7155,89.0854
204.711,35.652,38.2294,,204.711,43.03,42.5105,,204.711,82.8538,0.899293,89.9293,90.0713
206.563,37.56,37.9009,,206.563,41.575,41.5212,,206.563,90.3428,0.912808,91.2808,90.3401
208.415,37.558,38.122,,208.415,41.756,41.3975,,208.415,89.9464,0.920879,92.0879,91.4972
210.267,40.284,38.1668,,210.267,38.119,40.5497,,210.267,105.68,0.941235,94.1235,92.3063
212.118,43.283,39.5139,,212.118,41.481,39.618,,212.118,104.344,0.997374,99.7374,92.7078
213.97,40.372,40.9744,,213.97,40.389,40.2939,,213.97,99.9579,1.01689,101.689,94.6677
215.822,33.644,39.0351,,215.822,34.661,38.4798,,215.822,97.0659,1.01443,101.443,96.9624
217.673,41.915,38.5039,,217.673,41.933,38.7408,,217.673,99.9571,0.993885,99.3885,98.6393
219.525,47.641,42.4697,,219.525,44.568,41.7339,,219.525,106.895,1.01763,101.763,100.413
221.377,43.64,43.9526,,221.377,44.749,42.7725,,221.377,97.5217,1.02759,102.759,101.474
223.229,39.638,43.0847,,223.229,43.657,42.8089,,223.229,90.7941,1.00644,100.644,101.449
225.08,37.091,40.7247,,225.08,40.566,42.6129,,225.08,91.4337,0.95569,95.569,100.47
226.932,40.636,39.4502,,226.932,42.474,41.5992,,226.932,95.6726,0.94834,94.834,99.3531
228.784,43.361,40.7781,,228.784,44.291,42.036,,228.784,97.9003,0.970076,97.0076,98.4891
230.636,34.996,40.0084,,230.636,42.926,42.496,,230.636,81.5263,0.941461,94.1461,97.1142
232.487,42.54,38.4164,,232.487,39.743,42.2131,,232.487,107.038,0.910059,91.0059,95.1074
234.339,41.448,40.931,,234.339,42.197,41.7141,,234.339,98.225,0.981226,98.1226,94.837
236.191,40.447,40.9209,,236.191,45.378,43.5585,,236.191,89.1335,0.939445,93.9445,95.0661
238.043,46.263,41.6327,,238.043,56.013,46.5648,,238.043,82.5933,0.89408,89.408,94.239
239.894,49.262,44.6738,,239.894,61.103,53.244,,239.894,80.6212,0.839039,83.9039,92.222
241.746,54.806,48.1657,,241.746,58.284,56.4093,,241.746,94.0327,0.85386,85.386,90.856
243.598,56.804,51.9977,,243.598,62.828,58.4586,,243.598,90.4119,0.889479,88.9479,89.6461
245.449,58.53,53.6192,,245.449,67.464,62.2546,,245.449,86.7574,0.861289,86.1289,87.7564
247.301,68.529,58.7588,,247.301,74.008,67.0479,,247.301,92.5967,0.87637,87.637,86.792
249.153,68.982,64.2077,,249.153,76.462,71.9343,,249.153,90.2174,0.892588,89.2588,87.1575
251.005,67.435,66.1536,,251.005,78.824,74.4033,,251.005,85.5514,0.889122,88.9122,88.2156
252.856,68.07,67.3575,,252.856,84.096,77.687,,252.856,80.9432,0.867036,86.7036,88.176
254.681,67.523,68.2879,,254.681,83.277,80.7354,,254.681,81.0824,0.845824,84.5824,87.6042
256.513,70.157,68.9941,,256.513,85.73,82.9864,,256.513,81.8348,0.831391,83.1391,86.9759
258.347,71.792,70.1888,,258.347,87.911,85.0558,,258.347,81.6644,0.825208,82.5208,85.8582
260.181,72.063,71.5533,,260.181,84.546,85.9536,,260.181,85.2353,0.832465,83.2465,84.5613
262.017,69.426,70.9025,,262.017,84.181,85.3776,,262.017,82.4723,0.830458,83.0458,83.6468
263.853,74.151,72.4593,,263.853,88.362,86.106,,263.853,83.9173,0.841513,84.1513,83.172
265.691,74.331,74.1969,,265.691,92.361,87.7832,,265.691,80.4788,0.845229,84.5229,83.2593
267.53,73.694,74.325,,267.53,91.36,89.4831,,267.53,80.6633,0.830605,83.0605,83.3066
269.369,70.874,73.1343,,269.369,92.995,90.0457,,269.369,76.2127,0.812191,81.2191,83.2008
271.21,68.872,71.4512,,271.21,97.903,92.4478,,271.21,70.3472,0.772881,77.2881,82.318
273.052,70.78,69.5909,,273.052,94.902,94.2616,,273.052,74.5822,0.738275,73.8275,80.7535
274.895,80.051,71.7181,,274.895,88.446,92.3501,,274.895,90.5083,0.776589,77.6589,79.2176
276.739,74.958,75.9094,,276.739,88.082,90.1149,,276.739,85.1002,0.842363,84.2363,79.0381
278.584,69.866,74.3443,,278.584,88.171,88.4909,,278.584,79.2392,0.840135,84.0135,79.3833
280.431,77.591,74.4122,,280.431,90.716,89.2624,,280.431,85.5318,0.833635,83.3635,80.0573
282.278,77.226,76.1979,,282.278,89.714,89.8304,,282.278,86.0802,0.848241,84.8241,81.7444
284.126,70.77,74.5017,,284.126,92.441,90.4788,,284.126,76.5569,0.823416,82.3416,83.3542
285.976,70.495,71.3768,,285.976,93.803,91.1303,,285.976,75.1522,0.783239,78.3239,83.0175
287.826,73.948,72.1411,,287.826,92.802,91.8899,,287.826,79.6836,0.785082,78.5082,81.8165
289.678,69.128,71.9745,,289.678,89.255,90.7646,,289.678,77.45,0.79298,79.298,81.0146
291.531,74.399,71.1607,,291.531,92.527,90.6522,,291.531,80.4079,0.784986,78.4986,79.9488
293.385,82.125,76.0968,,293.385,90.526,91.3556,,293.385,90.7198,0.832974,83.2974,79.4074
295.239,73.759,77.0932,,295.239,91.07,90.4104,,295.239,80.9915,0.852703,85.2703,80.3154
297.095,73.849,74.8545,,297.095,94.887,92.2607,,297.095,77.8284,0.811336,81.1336,81.0932
298.952,78.756,75.6551,,298.952,95.431,93.5602,,298.952,82.5266,0.808624,80.8624,81.4215
300.81,78.754,76.7146,,300.81,93.793,94.3954,,300.81,83.9658,0.812694,81.2694,81.9312
302.669,80.025,78.1342,,302.669,88.338,91.817,,302.669,90.5896,0.850977,85.0977,82.6969
304.53,72.66,76.6884,,304.53,89.609,89.7095,,304.53,81.0856,0.854852,85.4852,82.9184
306.391,71.203,72.9538,,306.391,88.062,89.1865,,306.391,80.8555,0.817992,81.7992,82.8578
308.253,77.292,74.2853,,308.253,93.152,90.2314,,308.253,82.9741,0.823275,82.3275,83.1152
310.117,70.563,75.5363,,310.117,91.605,91.4441,,310.117,77.0296,0.826038,82.6038,83.4264
311.981,75.38,74.3542,,311.981,91.422,91.101,,311.981,82.4528,0.816173,81.6173,83.1867
313.847,77.378,76.8477,,313.847,95.33,91.2889,,313.847,81.1686,0.841807,84.1807,82.6867
315.713,81.285,78.8338,,315.713,94.329,93.5318,,315.713,86.1718,0.842855,84.2855,82.7065
317.581,78.829,79.8085,,317.581,98.418,94.6417,,317.581,80.0961,0.843271,84.3271,83.1722
319.45,81.19,78.4784,,319.45,96.326,96.297,,319.45,84.2867,0.814962,81.4962,83.0303
321.319,79.279,80.385,,321.319,90.416,95.3567,,321.319,87.6825,0.842993,84.2993,83.3438
323.19,71.732,78.2041,,323.19,94.142,94.0786,,323.19,76.1955,0.831264,83.1264,83.5974
325.062,77.366,75.8282,,325.062,93.14,93.6586,,325.062,83.0642,0.809623,80.9623,83.0872
326.935,75.364,76.559,,326.935,97.503,94.264,,326.935,77.294,0.812176,81.2176,82.4884
328.809,76.999,76.0807,,328.809,101.683,97.2686,,328.809,75.7246,0.782172,78.2172,81.7759
330.685,79.451,77.3649,,330.685,99.227,99.6732,,330.685,80.0699,0.776185,77.6185,80.8303
332.561,79.631,77.4949,,332.561,99.771,99.774,,332.561,79.8138,0.776704,77.6704,79.5155
334.438,81.266,79.5285,,334.438,97.679,98.6843,,334.438,83.197,0.805888,80.5888,79.1091
336.316,75.445,79.1585,,336.316,102.496,99.0986,,336.316,73.6078,0.798785,79.8785,78.8981
338.196,74.807,77.3499,,338.196,102.131,101.62,,338.196,73.2461,0.761167,76.1167,78.3663
340.076,75.078,76.05,,340.076,99.947,101.981,,340.076,75.1178,0.745723,74.5723,77.8068
341.958,77.167,75.7004,,341.958,96.491,99.8221,,341.958,79.9733,0.758353,75.8353,77.4242
343.84,80.892,78.126,,343.84,102.49,99.8795,,343.84,78.9267,0.782202,78.2202,77.2104
345.724,83.617,79.7862,,345.724,103.579,101.973,,345.724,80.7278,0.782426,78.2426,76.7583
347.609,81.896,80.5813,,347.609,98.042,100.992,,347.609,83.5315,0.7979,79.79,76.982
349.495,83.694,80.4467,,349.495,106.676,101.908,,349.495,78.4563,0.789403,78.9403,77.8259
351.382,84.041,82.2912,,351.382,105.402,104.69,,351.382,79.7338,0.786044,78.6044,78.5204
353.269,85.742,83.7252,,353.269,105.292,104.512,,353.269,81.4326,0.801104,80.1104,79.052
355.158,82.588,84.8072,,355.158,115.346,107.968,,355.158,71.6002,0.785481,78.5481,79.3005
357.048,81.029,83.5594,,357.048,110.673,111.077,,357.048,73.2148,0.752267,75.2267,78.7869
358.94,82.157,83.1609,,358.94,111.762,109.872,,358.94,73.5107,0.756891,75.6891,77.9446
360.832,82.371,81.6214,,360.832,113.053,110.748,,360.832,72.8605,0.737004,73.7004,77.077
362.725,89.028,83.3618,,362.725,115.754,112.854,,362.725,76.9114,0.738666,73.8666,76.0023
364.619,87.073,85.6916,,364.619,111.863,113.697,,364.619,77.839,0.753683,75.3683,75.0589
366.515,92.263,86.9126,,366.515,120.36,114.787,,366.515,76.6559,0.757162,75.7162,74.8484
368.411,92.96,89.3853,,368.411,120.326,118.882,,368.411,77.2568,0.751884,75.1884,74.8703
370.308,89.184,89.8014,,370.308,118.77,118.855,,370.308,75.0897,0.755552,75.5552,75.0367
372.207,92.884,89.6674,,372.207,125.223,119.59,,372.207,74.1749,0.749787,74.9787,75.3188
374.107,100.788,93.8924,,374.107,125.543,122.975,,374.107,80.2817,0.763506,76.3506,75.5325
376.007,96.255,95.8558,,376.007,125.651,124.338,,376.007,76.605,0.770931,77.0931,75.7903
377.909,91.684,93.7674,,377.909,131.77,125.91,,377.909,69.5788,0.744719,74.4719,75.7907
379.812,98.66,94.0504,,379.812,139.358,130.63,,379.812,70.7961,0.719973,71.9973,75.2185
381.716,98.233,96.5811,,381.716,139.065,134.212,,381.716,70.6382,0.719614,71.9614,74.59
383.62,97.605,97.3157,,383.62,145.735,138.843,,383.62,66.9743,0.700903,70.0903,73.7321
385.526,99.444,98.2867,,385.526,137.409,139.962,,385.526,72.3708,0.702239,70.2239,72.4038
387.433,103.978,100.214,,387.433,141.168,139.514,,387.433,73.6555,0.718312,71.8312,71.4721
389.341,108.768,103.596,,389.341,145.868,142.1,,389.341,74.566,0.729036,72.9036,71.3332
391.25,110.407,107.118,,391.25,151.691,146.125,,391.25,72.7841,0.733056,73.3056,71.5654
393.161,115.956,109.447,,393.161,160.884,150.977,,393.161,72.0743,0.724926,72.4926,71.8515
395.072,131.08,116.355,,395.072,183.671,161.883,,395.072,71.3667,0.718764,71.8764,72.2923
396.984,148.854,128.699,,396.984,208.373,180.311,,396.984,71.4363,0.713763,71.3763,72.3783
398.897,186.836,147.622,,398.897,246.89,204.525,,398.897,75.6758,0.721781,72.1781,72.3007
400.812,243.709,181.647,,400.812,313.157,242.129,,400.812,77.8233,0.75021,75.021,72.5082
402.727,324.035,232.54,,402.727,415.887,302.785,,402.727,77.9142,0.768006,76.8006,73.152
404.644,443.047,308.719,,404.644,560.653,396.039,,404.644,79.0234,0.779517,77.9517,74.1622
406.561,622.089,421.131,,406.561,774.298,531.273,,406.561,80.3423,0.792684,79.2684,75.55
408.48,895.324,591.962,,408.48,1093.481,734.641,,408.48,81.8783,0.805784,80.5784,77.1985
410.4,1304.471,848.401,,410.4,1550.196,1031.22,,410.4,84.1488,0.822712,82.2712,78.7795
412.32,1887.008,1226.62,,412.32,2222.732,1462.76,,412.32,84.8959,0.838565,83.8565,80.2025
414.242,2700.605,1766.44,,414.242,3163.461,2085.57,,414.242,85.3687,0.84698,84.698,81.5579
416.165,3842.547,2530.14,,416.165,4451.47,2958.03,,416.165,86.3209,0.855345,85.5345,82.8281
418.089,5378.586,3589.15,,418.089,6190.243,4157.76,,418.089,86.8881,0.863241,86.3241,84.0166
420.014,7387.09,5010.12,,420.014,8451.974,5767.44,,420.014,87.4008,0.868692,86.8692,85.0473
421.939,9959.76,6873.83,,421.939,11338.22,7870.72,,421.939,87.8424,0.873342,87.3342,85.838
423.866,13156.825,9266.56,,423.866,14858.071,10548.9,,423.866,88.55,0.878442,87.8442,86.4892
425.795,16989.873,12243.3,,425.795,18999.297,13820.5,,425.795,89.4237,0.885877,88.5877,87.1219
427.724,21453.952,15829.6,,427.724,23830.084,17724.6,,427.724,90.0289,0.893088,89.3088,87.7348
429.654,26631.799,20049.5,,429.654,29330.442,22281.3,,429.654,90.7992,0.899833,89.9833,88.3466
431.585,32572.107,24966,,431.585,35524.486,27504.1,,431.585,91.6892,0.907719,90.7719,89.0036
433.517,39256.232,30604.6,,433.517,42427.542,33418,,433.517,92.5254,0.915812,91.5812,89.7264
435.451,46639.397,36970.8,,435.451,49887.621,39995.1,,435.451,93.4889,0.924383,92.4383,90.4897
437.385,54156.705,43952.1,,437.385,57254.674,47073.2,,437.385,94.5891,0.933697,93.3697,91.2822
439.32,60206.993,50925.8,,439.32,62514.822,53892.5,,439.32,96.3083,0.944953,94.4953,92.1447
441.257,63165.683,56677.7,,441.257,64000,58913.9,,441.257,98.6964,0.962043,96.2043,93.1611
443.194,63116.242,60153.6,,443.194,63674.793,61526.8,,443.194,99.1228,0.977681,97.7681,94.3446
445.133,61441.956,61329.2,,445.133,62227.685,62338.3,,445.133,98.7373,0.983813,98.3813,95.5395
447.072,57976.386,60627.7,,447.072,59293.563,61635.3,,447.072,97.7785,0.983652,98.3652,96.5954
449.013,51332.063,57687.4,,449.013,53142.307,59010.9,,449.013,96.5936,0.977572,97.7572,97.3771
450.955,42826.79,52222.7,,450.955,44477.703,53779.7,,450.955,96.2882,0.971049,97.1049,97.772
452.897,34917.56,45241.8,,452.897,36198.569,46764.1,,452.897,96.4612,0.967448,96.7448,97.7496
454.841,28567.581,38169.9,,454.841,29497.312,39472.2,,454.841,96.8481,0.967009,96.7009,97.4853
456.786,23704.397,31861.2,,456.786,24370.579,32900.3,,456.786,97.2664,0.968417,96.8417,97.1763
458.732,19975.259,26616.9,,458.732,20454.45,27407.8,,458.732,97.6573,0.971142,97.1142,96.9677
460.679,16952.901,22358,,460.679,17336.43,22959.3,,460.679,97.7877,0.973811,97.3811,96.9401
462.627,14420.62,18880,,462.627,14707.613,19335.7,,462.627,98.0487,0.976436,97.6436,97.0613
464.576,12209.992,15975.1,,464.576,12463.222,16334.4,,464.576,97.9682,0.978004,97.8004,97.2622
466.526,10349.887,13517.6,,466.526,10551.892,13810.2,,466.526,98.0856,0.97881,97.881,97.4712
468.477,8849.465,11467.1,,468.477,9025.241,11703.9,,468.477,98.0524,0.979767,97.9767,97.6605
470.429,7668.528,9788.05,,470.429,7818.333,9984.2,,470.429,98.0839,0.980354,98.0354,97.8091
472.382,6768.553,8443.47,,472.382,6899.26,8608.48,,472.382,98.1055,0.980832,98.0832,97.9194
474.336,6081.172,7387.28,,474.336,6186.437,7525.12,,474.336,98.2985,0.981683,98.1683,97.998
476.292,5552.87,6564.19,,476.292,5650.679,6682.84,,476.292,98.2691,0.982246,98.2246,98.0703
478.248,5150.744,5928.56,,478.248,5248.95,6036.29,,478.248,98.129,0.982152,98.2152,98.1249
480.205,4833.323,5438.04,,480.205,4936.14,5542.55,,480.205,97.9171,0.981145,98.1145,98.1513
482.164,4632.343,5066.66,,482.164,4730.842,5169.31,,482.164,97.9179,0.980142,98.0142,98.1466
484.123,4513.762,4806.08,,484.123,4621.49,4909.27,,484.123,97.669,0.97898,97.898,98.1136
486.083,4511.274,4644.55,,486.083,4648.985,4759.32,,486.083,97.0378,0.975886,97.5886,98.0191
488.045,4685.758,4612.83,,488.045,4831.615,4743.7,,488.045,96.9812,0.972412,97.2412,97.8511
490.007,4985.051,4721.07,,490.007,5132.308,4858.48,,490.007,97.1308,0.971718,97.1718,97.6639
491.971,5387.761,4956.38,,491.971,5580.085,5109.18,,491.971,96.5534,0.970093,97.0093,97.4776
493.936,5908.654,5308.62,,493.936,6134.021,5491.74,,493.936,96.3259,0.966656,96.6656,97.2492
495.901,6510.793,5771.83,,495.901,6805.139,5993.71,,495.901,95.6747,0.96298,96.298,96.989
497.868,7197.766,6328.78,,497.868,7560.527,6605.84,,497.868,95.2019,0.958059,95.8059,96.7089
499.836,7966.565,6975.77,,499.836,8398.979,7313.26,,499.836,94.8516,0.953853,95.3853,96.3869
501.804,8771.507,7696.21,,501.804,9288.26,8101.74,,501.804,94.4365,0.949946,94.9946,96.0031
503.774,9596.58,8467.6,,503.774,10243.017,8963.53,,503.774,93.689,0.944673,94.4673,95.5804
505.745,10407.513,9263.33,,505.745,11150.964,9863.56,,505.745,93.3329,0.939147,93.9147,95.1137
507.717,11205.682,10062.3,,507.717,12055.608,10765.2,,507.717,92.95,0.934714,93.4714,94.6426
509.69,11967.229,10854.8,,509.69,12973.535,11674.3,,509.69,92.2434,0.929802,92.9802,94.1725
511.664,12683.922,11620.7,,511.664,13871.801,12583.8,,511.664,91.4367,0.923465,92.3465,93.666
513.639,13360.719,12352.2,,513.639,14671.604,13461.2,,513.639,91.0652,0.917609,91.7609,93.1228
515.615,13932.746,13029.1,,515.615,15397.06,14281.8,,515.615,90.4897,0.912286,91.2286,92.587
517.592,14377.793,13616.3,,517.592,16069.592,15040.5,,517.592,89.472,0.905308,90.5308,92.0236
519.57,14719.843,14102.7,,519.57,16637.44,15729,,519.57,88.4742,0.896608,89.6608,91.3884
521.549,14969.147,14495.3,,521.549,17143.404,16334.7,,521.549,87.3172,0.887397,88.7397,90.6859
523.529,15151.525,14795.4,,523.529,17567.495,16868.9,,523.529,86.2475,0.877082,87.7082,89.9161
525.51,15217.613,15003.7,,525.51,17912.017,17326.5,,525.51,84.9576,0.865937,86.5937,89.0425
527.493,15199.719,15112.2,,527.493,18129.767,17691.4,,527.493,83.8385,0.854215,85.4215,88.0594
529.476,15079.981,15128.9,,529.476,18298.241,17965.2,,529.476,82.4122,0.842122,84.2122,86.999
531.46,14880.105,15051.9,,531.46,18376.976,18162.2,,531.46,80.9715,0.828748,82.8748,85.8604
533.446,14666.706,14908,,533.446,18394.461,18277.2,,533.446,79.7344,0.815663,81.5663,84.6558
535.432,14395.451,14714.8,,535.432,18380.008,18335.7,,535.432,78.3212,0.80252,80.252,83.4061
537.419,14107.14,14471.7,,537.419,18314.218,18342.9,,537.419,77.0284,0.788956,78.8956,82.1182
539.408,13842.032,14213,,539.408,18241.306,18310.1,,539.408,75.8829,0.776239,77.6239,80.8068
541.397,13585.035,13953.3,,541.397,18116.433,18244.7,,541.397,74.9874,0.764784,76.4784,79.5118
543.388,13327.761,13697.4,,543.388,18010.748,18152.8,,543.388,73.9989,0.754565,75.4565,78.2708
545.379,13085.446,13441.6,,545.379,17860.086,18041.7,,545.379,73.2664,0.745029,74.5029,77.0898
547.372,12882.504,13205.4,,547.372,17739.367,17915.4,,547.372,72.621,0.737096,73.7096,76.0037
549.365,12656.076,12981.4,,549.365,17602.812,17792,,549.365,71.898,0.729622,72.9622,75.0256
551.36,12438.782,12757.4,,551.36,17418.725,17651.3,,551.36,71.4104,0.722742,72.2742,74.1449
553.356,12181.132,12527.1,,553.356,17167.843,17468.1,,553.356,70.9532,0.717141,71.7141,73.3555
555.352,11885.563,12274.4,,555.352,16964.686,17256.7,,555.352,70.0606,0.711284,71.1284,72.6499
557.35,11564.177,11988,,557.35,16744.941,17055.5,,557.35,69.0607,0.702881,70.2881,71.9667
559.349,11248.418,11688.2,,559.349,16493.069,16829.6,,559.349,68.2009,0.694502,69.4502,71.2672
561.348,10887.72,11369.5,,561.348,16250.673,16589.7,,561.348,66.9986,0.685331,68.5331,70.5394
563.349,10501.808,11024,,563.349,15993.017,16348.1,,563.349,65.665,0.674326,67.4326,69.7324
565.351,10039.903,10637.1,,565.351,15706.557,16090.7,,565.351,63.9217,0.661069,66.1069,68.7914
567.354,9585.614,10208.6,,567.354,15408.025,15816.3,,567.354,62.2118,0.645452,64.5452,67.6972
569.358,9148.453,9773.14,,569.358,15122.221,15533,,569.358,60.4968,0.629184,62.9184,66.4599
571.363,8689.268,9330.38,,571.363,14803.019,15236.5,,571.363,58.6993,0.612371,61.2371,65.0679
573.368,8248.932,8884.65,,573.368,14476.131,14927.8,,573.368,56.983,0.595174,59.5174,63.542
575.375,7830.233,8443.23,,575.375,14137.525,14603.3,,575.375,55.3862,0.578173,57.8173,61.9165
577.383,7459.58,8028.18,,577.383,13856.848,14288,,577.383,53.8332,0.561881,56.1881,60.2526
579.392,7102.147,7637.53,,579.392,13553.915,13989.5,,579.392,52.3992,0.545946,54.5946,58.5857
581.402,6801.335,7279.01,,581.402,13220.763,13677.3,,581.402,51.4443,0.532196,53.2196,56.9574
583.413,6546.286,6959.78,,583.413,12883.828,13351.8,,583.413,50.8101,0.521262,52.1262,55.4287
585.425,6355.35,6691.52,,585.425,12565.841,13024.3,,585.425,50.5764,0.51377,51.377,54.0644
587.439,6190.44,6470.76,,587.439,12218.756,12701.1,,587.439,50.6634,0.509466,50.9466,52.9171
589.453,6053.662,6287.72,,589.453,11860.998,12358.4,,589.453,51.0384,0.50878,50.878,52.0437
591.468,5947.212,6137.36,,591.468,11532.923,12014.7,,591.468,51.5673,0.510822,51.0822,51.482
593.484,5834.286,6009.93,,593.484,11205.222,11680.4,,593.484,52.0676,0.514529,51.4529,51.2193
595.501,5741.682,5893.86,,595.501,10855.083,11343.6,,595.501,52.8939,0.519576,51.9576,51.2239
597.519,5653.212,5792.65,,597.519,10499.447,10998.9,,597.519,53.843,0.526657,52.6657,51.4666
599.539,5537.763,5689.72,,599.539,10162.072,10650.4,,599.539,54.4944,0.534224,53.4224,51.9047
601.559,5413.51,5578.11,,601.559,9798.777,10300.6,,601.559,55.2468,0.54153,54.153,52.4704
603.58,5259.484,5454.51,,603.58,9459.679,9949.95,,603.58,55.599,0.548195,54.8195,53.1154
605.602,5090.659,5310.45,,605.602,9106.042,9603.99,,605.602,55.9042,0.552942,55.2942,53.7797
607.626,4906.736,5149.71,,607.626,8752.966,9252.65,,607.626,56.058,0.556566,55.6566,54.4077
609.65,4685.583,4967.37,,609.65,8417.211,8907.23,,609.65,55.6667,0.557679,55.7679,54.93
611.675,4446.097,4759.6,,611.675,8081.183,8566.92,,611.675,55.0179,0.555578,55.5578,55.2901
613.702,4213.152,4536.25,,613.702,7750.473,8230.89,,613.702,54.3599,0.551125,55.1125,55.4411
615.729,3972.232,4304.95,,615.729,7428.717,7899.72,,615.729,53.4713,0.544949,54.4949,55.3752
617.757,3740.373,4072.33,,617.757,7107.102,7574.24,,617.757,52.6287,0.537654,53.7654,55.0939
619.787,3493.124,3833.96,,619.787,6777.411,7248.79,,619.787,51.5407,0.528911,52.8911,54.6068
621.817,3262.599,3594.84,,621.817,6479.382,6926.44,,621.817,50.3536,0.519002,51.9002,53.9441
623.849,3066.961,3370.69,,623.849,6197.39,6621.21,,623.849,49.4879,0.509075,50.9075,53.1504
625.881,2876.043,3164.21,,625.881,5898.7,6323.7,,625.881,48.7572,0.500373,50.0373,52.2826
627.915,2699.684,2968.4,,627.915,5597.269,6026.39,,627.915,48.2322,0.492567,49.2567,51.3905
629.949,2549.767,2788.9,,629.949,5317.543,5729.63,,629.949,47.9501,0.486751,48.6751,50.5247
631.985,2442.894,2635.71,,631.985,5078.235,5452.72,,631.985,48.1052,0.483375,48.3375,49.756
634.021,2354.841,2512.46,,634.021,4845.814,5199.17,,634.021,48.5954,0.483242,48.3242,49.158
636.059,2303.382,2415.63,,636.059,4614.617,4957.05,,636.059,49.9149,0.487312,48.7312,48.7904
638.098,2268.534,2347,,638.098,4396.936,4722.31,,638.098,51.5935,0.497003,49.7003,48.7347
640.137,2241.928,2297.71,,640.137,4190.298,4500.78,,640.137,53.5028,0.510513,51.0513,49.0475
642.178,2224.74,2263.01,,642.178,3977.679,4285.8,,642.178,55.9306,0.528025,52.8025,49.7613
644.219,2205.657,2236.93,,644.219,3776.175,4074.28,,644.219,58.4098,0.549036,54.9036,50.8947
646.262,2205.851,2220.77,,646.262,3579.935,3869.46,,646.262,61.6171,0.573921,57.3921,52.4472
648.306,2209.497,2215.06,,648.306,3390.26,3668.67,,648.306,65.1719,0.603778,60.3778,54.4121
650.35,2206.528,2212.56,,650.35,3226.089,3481.54,,650.35,68.3964,0.635511,63.5511,56.7555
652.396,2190.435,2206.26,,652.396,3054.629,3304.68,,652.396,71.7087,0.667617,66.7617,59.4156
654.443,2180.678,2195.6,,654.443,2884.204,3130.37,,654.443,75.6076,0.701386,70.1386,62.3404
656.49,2165.892,2184.85,,656.49,2731.414,2962.54,,656.49,79.2956,0.737494,73.7494,65.5147
658.539,2134.889,2167.71,,658.539,2580.731,2804.5,,658.539,82.7242,0.772938,77.2938,68.8546
660.589,2098.195,2143.16,,660.589,2427.603,2648.13,,660.589,86.4307,0.809311,80.9311,72.2904
662.64,2058.935,2109.46,,662.64,2288.091,2497.08,,662.64,89.9848,0.844772,84.4772,75.8024
664.691,2012.329,2072.71,,664.691,2164.156,2356.33,,664.691,92.9845,0.879634,87.9634,79.3619
666.744,1957.031,2027.09,,666.744,2045.696,2226.29,,666.744,95.6658,0.910526,91.0526,82.8659
668.798,1893.137,1975.33,,668.798,1925.154,2100.21,,668.798,98.3369,0.940542,94.0542,86.2568
670.853,1820.784,1914.6,,670.853,1815.214,1979.64,,670.853,100.307,0.967143,96.7143,89.4957
672.909,1754.752,1848.66,,672.909,1715.56,1867.31,,672.909,102.285,0.990012,99.0012,92.5015
674.965,1696.656,1785.08,,674.965,1611.947,1762.64,,674.965,105.255,1.01273,101.273,95.2642
677.023,1617.806,1718.94,,677.023,1524.155,1660.97,,677.023,106.144,1.0349,103.49,97.8327
679.082,1537.318,1645.14,,679.082,1432.954,1566.48,,679.082,107.283,1.05021,105.021,100.151
681.142,1463.243,1568.88,,681.142,1354.302,1476.52,,681.142,108.044,1.06255,106.255,102.18
683.203,1389.373,1494,,683.203,1270.438,1392.78,,683.203,109.362,1.07268,107.268,103.934
685.265,1312.882,1420.43,,685.265,1184.315,1306.68,,685.265,110.856,1.08705,108.705,105.51
687.327,1245.975,1345.98,,687.327,1118.864,1225.41,,687.327,111.361,1.09839,109.839,106.883
689.391,1177.253,1277.24,,689.391,1065.445,1157.43,,689.391,110.494,1.10351,110.351,108.037
691.456,1113.707,1209.37,,691.456,1002.409,1093.7,,691.456,111.103,1.10576,110.576,108.966
693.522,1057.654,1145.71,,693.522,947.984,1031.78,,693.522,111.569,1.11042,111.042,109.764
695.589,1005.983,1087.39,,695.589,895.937,974.024,,695.589,112.283,1.11639,111.639,110.436
697.657,942.882,1028.69,,697.657,844.05,920.439,,697.657,111.709,1.11761,111.761,110.923
699.726,885.188,967.697,,699.726,793.442,867.434,,699.726,111.563,1.11559,111.559,111.205
701.796,843.495,913.722,,701.796,752.07,817.616,,701.796,112.156,1.11754,111.754,111.445
703.867,802.064,865.344,,703.867,717.422,774.53,,703.867,111.798,1.11725,111.725,111.637
705.939,759.999,820.285,,705.939,679.315,735.617,,705.939,111.877,1.1151,111.51,111.7
708.012,711.519,776.058,,708.012,636.773,694.687,,708.012,111.738,1.11713,111.713,111.685
710.085,662.327,729.621,,710.085,606.364,655.382,,710.085,109.229,1.11328,111.328,111.654
712.16,631.882,687.518,,712.16,566.369,620.068,,712.16,111.567,1.10878,110.878,111.507
714.236,595.427,650.567,,714.236,532.352,582.695,,714.236,111.848,1.11648,111.648,111.433
716.313,549.863,609.844,,716.313,505.864,550.157,,716.313,108.698,1.10849,110.849,111.345
718.391,518.963,570.609,,718.391,472.365,517.728,,718.391,109.865,1.10214,110.214,111.089
720.47,493.766,537.899,,720.47,447.827,487.368,,720.47,110.258,1.10368,110.368,110.832
722.55,463.443,508.329,,722.55,433.743,462.584,,722.55,106.847,1.09889,109.889,110.671
724.631,437.224,478.822,,724.631,409.02,440.922,,724.631,106.896,1.08595,108.595,110.235
726.713,418.427,454.012,,726.713,388.541,418.692,,726.713,107.692,1.08436,108.436,109.652
728.796,394.077,429.283,,728.796,371.186,398.504,,728.796,106.167,1.07724,107.724,109.18
730.88,380.458,406.507,,730.88,349.794,379.032,,730.88,108.766,1.07249,107.249,108.623
732.965,359.008,387.611,,732.965,336.604,360.43,,732.965,106.656,1.07541,107.541,108.101
735.051,340.418,366.931,,735.051,326.387,344.836,,735.051,104.299,1.06407,106.407,107.632
737.138,325.64,349.278,,737.138,309.643,331.615,,737.138,105.166,1.05326,105.326,107.083
739.226,308.645,332.121,,739.226,297.074,317.355,,739.226,103.895,1.04653,104.653,106.449
741.315,300.209,317.567,,741.315,293.86,307.387,,741.315,102.161,1.03312,103.312,105.752
743.405,291.807,305.836,,743.405,277.141,297.104,,743.405,105.292,1.02939,102.939,104.884
745.496,279.343,295.225,,745.496,267.722,284.507,,745.496,104.341,1.03768,103.768,104.244
747.588,263.885,282.189,,747.588,263.788,275.873,,747.588,100.037,1.02289,102.289,103.705
749.681,256.305,270.632,,749.681,251.092,266.248,,749.681,102.076,1.01647,101.647,103.086
751.775,245.05,261.08,,751.775,245.16,256.03,,751.775,99.9551,1.01973,101.973,102.665
753.87,233.602,249.736,,753.87,247.608,251.097,,753.87,94.3435,0.994577,99.4577,102.16
755.966,231.685,241.448,,755.966,236.574,246.921,,755.966,97.9334,0.977836,97.7836,101.116
758.063,211.831,231.799,,758.063,221.635,236.698,,758.063,95.5765,0.979301,97.9301,100.088
760.161,191.722,215.747,,760.161,205.981,223.779,,760.161,93.0775,0.964105,96.4105,99.1338
762.26,179.398,199.295,,762.26,201.861,212.771,,762.26,88.872,0.936665,93.6665,97.7546
764.36,181.345,189.451,,764.36,202.38,207.356,,764.36,89.6062,0.913655,91.3655,96.0205
766.461,189.086,188.178,,766.461,204.113,204.812,,766.461,92.6379,0.918787,91.8787,94.7373
768.562,183.937,188.256,,768.562,201.143,203.635,,768.562,91.4459,0.924478,92.4478,93.6834
770.665,178.368,184.423,,770.665,193.588,199.951,,770.665,92.1379,0.922337,92.2337,92.714
772.769,177.614,181.949,,772.769,193.397,196.739,,772.769,91.8391,0.924825,92.4825,92.1453
774.874,165.503,175.587,,774.874,185.475,193.222,,774.874,89.232,0.908736,90.8736,91.9596
776.98,164.322,169.432,,776.98,189.418,190.42,,776.98,86.751,0.88978,88.978,91.6051
779.087,162.606,165.915,,779.087,181.983,187.565,,779.087,89.3523,0.884574,88.4574,90.8995
781.195,157.617,162.176,,781.195,180.753,184.49,,781.195,87.2002,0.879052,87.9052,90.1206
783.304,159.366,159.549,,783.304,173.935,181.758,,783.304,91.6239,0.877814,87.7814,89.2587
785.414,153.689,159.199,,785.414,167.726,177.097,,785.414,91.631,0.898939,89.8939,88.7544
787.525,142.353,154.148,,787.525,158.788,170.284,,787.525,89.6497,0.905241,90.5241,88.8312
789.637,140.383,146.888,,789.637,156.031,163.472,,789.637,89.9712,0.898555,89.8555,89.0899
791.749,139.631,144.212,,791.749,153.463,159.225,,791.749,90.9868,0.905711,90.5711,89.4759
793.863,127.279,139.321,,793.863,150.563,156.128,,793.863,84.5354,0.892355,89.2355,89.8817
795.978,125.214,132.357,,795.978,150.986,153.586,,795.978,82.9309,0.861779,86.1779,89.5402
798.094,126.294,128.795,,798.094,150.643,152.262,,798.094,83.8366,0.84588,84.588,88.4892
800.211,123.296,126.914,,800.211,146.816,150.657,,800.211,83.9799,0.842405,84.2405,87.3841
802.329,118.814,123.457,,802.329,147.662,149.629,,802.329,80.4635,0.82509,82.509,86.0563
804.448,120.675,121.454,,804.448,146.668,148.293,,804.448,82.2777,0.819012,81.9012,84.4854
806.567,120.902,121.891,,806.567,155.107,149.196,,806.567,77.9475,0.816985,81.6985,83.3434
808.688,123.312,123.062,,808.688,147.652,150.275,,808.688,83.5153,0.818916,81.8916,82.6299
810.81,121.342,123.513,,810.81,146.27,148.305,,810.81,82.9575,0.832828,83.2828,82.3262
812.933,119.711,122.268,,812.933,144.419,147.154,,812.933,82.8914,0.830887,83.0887,82.2338
815.057,121.361,122.035,,815.057,153.045,147.675,,815.057,79.2976,0.826376,82.6376,82.3509
817.181,126.555,122.86,,817.181,155.736,151.328,,817.181,81.2625,0.811878,81.1878,82.276
819.307,128.044,124.828,,819.307,151.672,152.245,,819.307,84.4216,0.819916,81.9916,82.3416
821.434,134.233,127.37,,821.434,160.59,153.76,,821.434,83.5874,0.82837,82.837,82.4117
823.562,141.455,132.927,,823.562,163.951,158.246,,823.562,86.2788,0.840003,84.0003,82.4996
825.69,146.109,138.479,,825.69,174.003,163.075,,825.69,83.9692,0.849173,84.9173,82.8325
827.82,158.458,145.568,,827.82,189.855,173.097,,827.82,83.4626,0.840961,84.0961,83.306
829.951,174.775,155.622,,829.951,205.274,186.255,,829.951,85.1423,0.835533,83.5533,83.7181
832.082,189.931,168.661,,832.082,215.495,198.43,,832.082,88.1371,0.849979,84.9979,84.0838
834.215,198.012,181.279,,834.215,216.898,206.786,,834.215,91.2927,0.87665,87.665,84.7802
836.349,196.174,189.014,,836.349,219.103,211.731,,836.349,89.5351,0.892712,89.2712,85.621
838.483,216.094,197.745,,838.483,241.528,220.303,,838.483,89.4695,0.897603,89.7603,86.567
840.619,255.913,215.901,,840.619,278.337,239.836,,840.619,91.9436,0.900201,90.0201,87.7349
842.755,312.802,250.902,,842.755,333.384,272.42,,842.755,93.8263,0.921014,92.1014,89.1362
844.893,379.648,299.486,,844.893,400.011,320.492,,844.893,94.9094,0.934459,93.4459,90.4434
847.032,448.04,358.414,,847.032,474.535,380.132,,847.032,94.4166,0.942868,94.2868,91.504
849.171,526.358,423.255,,849.171,556.983,450.155,,849.171,94.5016,0.940242,94.0242,92.3851
851.312,608.135,498.401,,851.312,630.508,525.136,,851.312,96.4516,0.94909,94.909,93.3003
853.453,673.879,572.046,,853.453,703.737,599.605,,853.453,95.7572,0.954037,95.4037,94.1448
855.596,754.872,645.553,,855.596,769.709,671.021,,855.596,98.0724,0.962047,96.2047,94.746
857.739,821.119,720.218,,857.739,829.831,738.184,,857.739,98.9501,0.975662,97.5662,95.3763
859.884,866.829,784.785,,859.884,871.417,796.955,,859.884,99.4735,0.98473,98.473,96.1448
862.029,913.781,840.926,,862.029,905.793,845.071,,862.029,100.882,0.995095,99.5095,97.0622
864.175,940.875,886.788,,864.175,932.101,884.121,,864.175,100.941,1.00302,100.302,97.9777
866.323,969.469,921.25,,866.323,956.712,915.345,,866.323,101.333,1.00645,100.645,98.9015
868.471,1011.997,956.379,,868.471,993.127,945.857,,868.471,101.9,1.01112,101.112,99.6807
870.621,1058.615,996.835,,870.621,1031.509,979.757,,870.621,102.628,1.01743,101.743,100.35
872.771,1115.049,1042.28,,872.771,1082.553,1018.45,,872.771,103.002,1.0234,102.34,100.97
874.922,1198.046,1098.79,,874.922,1157.861,1070.42,,874.922,103.471,1.0265,102.65,101.482
877.075,1290.01,1173,,877.075,1234.603,1135.19,,877.075,104.488,1.03331,103.331,101.993
879.228,1388.85,1259.29,,879.228,1331.316,1211.7,,879.228,104.322,1.03927,103.927,102.557
881.382,1490.126,1354.2,,881.382,1420.587,1298.52,,881.382,104.895,1.04288,104.288,103.097
883.537,1582.509,1448.76,,883.537,1504.383,1384.85,,883.537,105.193,1.04615,104.615,103.576
885.694,1667.952,1540.48,,885.694,1575.576,1466.43,,885.694,105.863,1.0505,105.05,104.038
887.851,1726.562,1622.52,,887.851,1624.133,1535.65,,887.851,106.307,1.05657,105.657,104.523
890.009,1761.952,1686.13,,890.009,1658.197,1592.38,,890.009,106.257,1.05887,105.887,104.939
892.168,1769.335,1729.43,,892.168,1654.916,1627.2,,892.168,106.914,1.06283,106.283,105.329
894.328,1722.831,1740.5,,894.328,1623.094,1635.81,,894.328,106.145,1.064,106.4,105.706
896.489,1647.138,1712.93,,896.489,1559.063,1613.7,,896.489,105.649,1.06149,106.149,105.979
898.651,1563.07,1656.87,,898.651,1463.155,1561.85,,898.651,106.829,1.06084,106.084,106.124
900.815,1473.037,1584.83,,900.815,1371.84,1486.62,,900.815,107.377,1.06606,106.606,106.254
902.979,1366.96,1499.33,,902.979,1278.203,1404.37,,902.979,106.944,1.06762,106.762,106.394
905.144,1253.885,1400.98,,905.144,1176.028,1312.13,,905.144,106.62,1.06772,106.772,106.465
907.31,1152.269,1296.92,,907.31,1086.914,1218.25,,907.31,106.013,1.06458,106.458,106.523
909.477,1054.106,1196,,909.477,995.007,1125.59,,909.477,105.94,1.06256,106.256,106.567
911.644,963.399,1098.95,,911.644,906.569,1034.2,,911.644,106.269,1.06261,106.261,106.559
913.813,890.093,1009.58,,913.813,837.096,949.149,,913.813,106.331,1.06367,106.367,106.481
915.983,824.698,930.441,,915.983,779.347,876.084,,915.983,105.819,1.06205,106.205,106.385
918.154,761.757,858.091,,918.154,720.052,810.915,,918.154,105.792,1.05818,105.818,106.235
920.326,711.724,794.654,,920.326,664.393,749.018,,920.326,107.124,1.06093,106.093,106.156
922.499,665.692,738.649,,922.499,626.552,695.278,,922.499,106.247,1.06238,106.238,106.15
924.673,621.931,689.199,,924.673,585.166,648.683,,924.673,106.283,1.06246,106.246,106.138
926.847,565.443,639.515,,926.847,544.415,604.98,,926.847,103.862,1.05708,105.708,106.065
929.023,517.136,588.917,,929.023,503.118,561.581,,929.023,102.786,1.04868,104.868,105.876
931.2,479.646,542.589,,931.2,461.003,519.111,,931.2,104.044,1.04523,104.523,105.615
933.377,439.066,500.445,,933.377,423.069,477.983,,933.377,103.781,1.04699,104.699,105.307
935.556,405.121,458.681,,935.556,394.863,441.516,,935.556,102.598,1.03888,103.888,104.911
937.736,382.175,423.704,,937.736,366.565,410.534,,937.736,104.258,1.03208,103.208,104.38
939.916,355.956,394.775,,939.916,346.448,382.393,,939.916,102.744,1.03238,103.238,104.01
942.098,319.282,364.203,,942.098,328.331,358.575,,942.098,97.2439,1.0157,101.57,103.567
944.28,310.517,338.395,,944.28,309.213,337.735,,944.28,100.422,1.00195,100.195,102.782
946.464,295.66,321.443,,946.464,292.368,318.275,,946.464,101.126,1.00996,100.996,102.089
948.648,278.53,303.956,,948.648,277.341,301.738,,948.648,100.429,1.00735,100.735,101.592
950.834,268.399,288.259,,950.834,265.768,285.869,,950.834,100.99,1.00836,100.836,101.107
953.02,248.904,272.762,,953.02,255.012,272.17,,953.02,97.6048,1.00218,100.218,100.685
955.207,240.135,257.104,,955.207,249.711,262,,955.207,96.1652,0.981314,98.1314,100.322
957.396,235.911,248.133,,957.396,236.5,252.082,,957.396,99.751,0.984333,98.4333,99.8891
959.585,222.687,238.57,,959.585,236.106,242.885,,959.585,94.3165,0.982235,98.2235,99.4133
961.775,219.28,228.945,,961.775,229.44,237.911,,961.775,95.5718,0.962312,96.2312,98.6269
963.966,215.782,222.82,,963.966,221.773,231.494,,963.966,97.2986,0.96253,96.253,97.7587
966.159,208.828,218.137,,966.159,219.105,225.236,,966.159,95.3096,0.968483,96.8483,97.2431
968.352,204.237,212.536,,968.352,220.619,222.053,,968.352,92.5745,0.957142,95.7142,96.8732
970.546,207.191,208.248,,970.546,218.496,220.446,,970.546,94.826,0.944665,94.4665,96.1304
972.741,206.689,207.649,,972.741,219.555,220.312,,972.741,94.14,0.942524,94.2524,95.6058
974.937,208.914,207.836,,974.937,218.158,219.266,,974.937,95.7627,0.947871,94.7871,95.3041
977.134,211.502,209.797,,977.134,219.124,219.024,,977.134,96.5216,0.957871,95.7871,95.1051
979.332,215.726,212.495,,979.332,221.817,219.666,,979.332,97.254,0.967355,96.7355,95.1051
981.531,221.039,216.455,,981.531,227.964,223.572,,981.531,96.9622,0.968166,96.8166,95.4746
983.731,228.17,221.463,,983.731,233.383,227.857,,983.731,97.7663,0.971939,97.1939,95.9739
985.932,232.482,226.4,,985.932,240.438,232.49,,985.932,96.691,0.973809,97.3809,96.538
988.134,243.156,232.467,,988.134,249.583,238.987,,988.134,97.4249,0.972716,97.2716,96.9198
990.336,248.466,240.332,,990.336,255.455,246.471,,990.336,97.2641,0.975092,97.5092,97.1512
992.54,250.503,245.285,,992.54,261.962,253.353,,992.54,95.6257,0.968158,96.8158,97.1929
994.745,260.084,250.33,,994.745,274.288,260.722,,994.745,94.8215,0.96014,96.014,97.0585
996.951,267.755,257.959,,996.951,286.612,270.187,,996.951,93.4207,0.954744,95.4744,96.7279
999.157,274.334,264.591,,999.157,293.481,280.193,,999.157,93.4759,0.944316,94.4316,96.2386
1001.365,286.912,272.81,,1001.365,301.168,289.222,,1001.365,95.2664,0.943254,94.3254,95.6524
1003.573,295.125,282.346,,1003.573,303.763,296.508,,1003.573,97.1563,0.952237,95.2237,95.2053
1005.783,306.338,291.079,,1005.783,310.267,301.218,,1005.783,98.7337,0.96634,96.634,95.1685
1007.993,320.276,303.243,,1007.993,329.769,311.349,,1007.993,97.1213,0.973966,97.3966,95.4635
1010.205,340.941,317.458,,1010.205,350.362,326.477,,1010.205,97.3111,0.972373,97.2373,95.9086
1012.417,360.15,335.381,,1012.417,374.227,345.141,,1012.417,96.2384,0.971721,97.1721,96.4669
1014.631,387.177,354.617,,1014.631,403,368.867,,1014.631,96.0737,0.961366,96.1366,96.8014
1016.845,413.475,378.065,,1016.845,427.136,393.454,,1016.845,96.8017,0.960888,96.0888,96.8453
1019.06,439.589,403.025,,1019.06,460.817,418.868,,1019.06,95.3934,0.962176,96.2176,96.692
1021.277,463.34,429.589,,1021.277,488.77,448.532,,1021.277,94.7971,0.957768,95.7768,96.4128
1023.494,487.998,454.383,,1023.494,508.176,474.235,,1023.494,96.0293,0.958139,95.8139,96.1242
1025.712,510.472,477.421,,1025.712,529.673,497.215,,1025.712,96.3749,0.960191,96.0191,95.9786
1027.931,528.673,499.736,,1027.931,553.986,519.436,,1027.931,95.4308,0.962074,96.2074,95.997
1030.151,540.873,518.8,,1030.151,563.39,539.993,,1030.151,96.0033,0.960754,96.0754,95.9567
1032.372,542.799,531.204,,1032.372,575.884,555.399,,1032.372,94.2549,0.956438,95.6438,95.9292
1034.594,546.178,537.467,,1034.594,581.558,567.714,,1034.594,93.9163,0.946722,94.6722,95.7891
1036.817,554.919,545.167,,1036.817,588.232,576.536,,1036.817,94.3368,0.94559,94.559,95.5402
1039.041,552.204,550.651,,1039.041,588.632,583.337,,1039.041,93.8114,0.943968,94.3968,95.2287
1041.266,549.397,550.103,,1041.266,590.031,586.847,,1041.266,93.1132,0.937388,93.7388,94.8252
1043.492,551.043,550.533,,1043.492,586.793,588.034,,1043.492,93.9076,0.936226,93.6226,94.3808
1045.718,549.051,552.293,,1045.718,596.644,589.947,,1045.718,92.0232,0.936174,93.6174,94.0844
1047.946,541.058,549.394,,1047.946,593.313,592.824,,1047.946,91.1927,0.92674,92.674,93.7656
1050.175,537.79,543.818,,1050.175,601.617,594.302,,1050.175,89.3908,0.915054,91.5054,93.2515
1052.405,529.43,538.452,,1052.405,602.011,599.239,,1052.405,87.9436,0.898559,89.8559,92.5246
1054.635,521.068,531.475,,1054.635,596.403,597.902,,1054.635,87.3684,0.888901,88.8901,91.6728
1056.867,514.887,524.582,,1056.867,592.068,595.968,,1056.867,86.9642,0.880219,88.0219,90.6528
1059.099,515.522,519.476,,1059.099,580.549,590.142,,1059.099,88.7991,0.880255,88.0255,89.6654
1061.333,499.519,512.642,,1061.333,581.393,583.967,,1061.333,85.9176,0.877862,87.7862,88.8659
1063.567,491.242,502.294,,1063.567,572.872,579.42,,1063.567,85.7507,0.866892,86.6892,88.146
1065.802,479.508,493.83,,1065.802,567.258,573.583,,1065.802,84.5308,0.860956,86.0956,87.5471
1068.039,463.227,482.537,,1068.039,565.462,569.197,,1068.039,81.9201,0.847751,84.7751,86.9167
1070.276,458.944,471.087,,1070.276,558.937,565.166,,1070.276,82.1101,0.833537,83.3537,86.1119
1072.514,462.114,465.881,,1072.514,559.139,561.587,,1072.514,82.6474,0.82958,82.958,85.1658
1074.753,445.828,459.831,,1074.753,550.884,558.469,,1074.753,80.9296,0.823379,82.3379,84.279
1076.993,433.812,448.369,,1076.993,535.083,550.983,,1076.993,81.0738,0.813761,81.3761,83.3769
1079.234,433.885,440.473,,1079.234,534.007,542.727,,1079.234,81.2508,0.811592,81.1592,82.5529
1081.476,424.956,435.065,,1081.476,529.385,537.937,,1081.476,80.2735,0.808765,80.8765,81.9719
1083.719,420.117,427.722,,1083.719,527.215,532.68,,1083.719,79.6861,0.802961,80.2961,81.4744
1085.963,412.366,421.038,,1085.963,520.772,529.228,,1085.963,79.1836,0.795569,79.5569,80.9066
1088.208,401.067,413.663,,1088.208,513.782,522.837,,1088.208,78.0617,0.79119,79.119,80.4074
1090.454,392.675,404.568,,1090.454,508.245,517.41,,1090.454,77.261,0.781909,78.1909,79.8746
1092.772,392.009,397.872,,1092.772,503.615,512.319,,1092.772,77.839,0.776609,77.6609,79.2509
1094.985,382.977,392.64,,1094.985,503.075,508.097,,1094.985,76.1272,0.772766,77.2766,78.6447
1097.197,378.76,385.944,,1097.197,501.351,505.686,,1097.197,75.5479,0.763208,76.3208,78.0069
1099.409,375.087,381.325,,1099.409,492.535,500.414,,1099.409,76.1544,0.762018,76.2018,77.3921
1101.622,367.502,376.763,,1101.622,486.626,494.006,,1101.622,75.5204,0.762669,76.2669,76.9168
1103.834,353.916,369.019,,1103.834,478.08,487.981,,1103.834,74.0286,0.756216,75.6216,76.5232
1106.047,351.872,360.47,,1106.047,472.804,481.235,,1106.047,74.4224,0.749053,74.9053,76.0384
1108.259,342.189,353.508,,1108.259,469.89,475.543,,1108.259,72.8232,0.743377,74.3377,75.5927
1110.472,336.595,345.7,,1110.472,464.157,470.658,,1110.472,72.5175,0.734503,73.4503,75.1166
1112.684,329.907,339.77,,1112.684,458.24,466.471,,1112.684,71.9944,0.728386,72.8386,74.5107
1114.897,321.036,332.378,,1114.897,439.867,458.028,,1114.897,72.9848,0.725673,72.5673,73.8647
1117.109,312.525,323.315,,1117.109,433.31,445.914,,1117.109,72.125,0.725061,72.5061,73.3619
1119.321,314.466,318.203,,1119.321,426.297,436.608,,1119.321,73.7669,0.728807,72.8807,72.9807
1121.534,309.496,316.234,,1121.534,422.645,429.973,,1121.534,73.2284,0.735476,73.5476,72.8863
1123.746,292.614,309.479,,1123.746,415.719,425.571,,1123.746,70.3874,0.727208,72.7208,72.8633
1125.959,286.82,299.112,,1125.959,403.973,416.838,,1125.959,70.9998,0.717575,71.7575,72.7329
1128.171,281.114,291.268,,1128.171,398.589,409.039,,1128.171,70.5273,0.712079,71.2079,72.5078
1130.384,277.133,284.753,,1130.384,395.84,403.913,,1130.384,70.0114,0.704987,70.4987,72.1547
1132.596,267.695,279.033,,1132.596,378.543,395.556,,1132.596,70.7172,0.705419,70.5419,71.6368
1134.809,258.89,270.569,,1134.809,374.335,384.54,,1134.809,69.16,0.703618,70.3618,71.0986
1137.021,248.083,261.751,,1137.021,371.398,379.121,,1137.021,66.7971,0.690414,69.0414,70.5817
1139.233,238.819,252.236,,1139.233,349.913,370.158,,1139.233,68.251,0.681428,68.1428,69.9639
1141.446,232.824,244.147,,1141.446,346.154,357.45,,1141.446,67.2602,0.683024,68.3024,69.473
1143.658,217.191,234.113,,1143.658,340.03,350.921,,1143.658,63.8741,0.667138,66.7138,68.8732
1145.871,204.827,221.68,,1145.871,331.449,342.534,,1145.871,61.7974,0.647178,64.7178,67.8797
1148.083,200.461,211.376,,1148.083,325.32,335.189,,1148.083,61.6196,0.630616,63.0616,66.668
1150.296,197.001,205.213,,1150.296,310.099,325.84,,1150.296,63.5284,0.629797,62.9797,65.5985
1152.508,184.811,197.696,,1152.508,304.513,314.779,,1152.508,60.6907,0.628047,62.8047,64.5901
1154.721,173.527,187.606,,1154.721,298.015,308.209,,1154.721,58.2276,0.608698,60.8698,63.3919
1156.933,170.787,179.744,,1156.933,288.97,300.036,,1156.933,59.102,0.599076,59.9076,62.2789
1159.145,165.589,173.986,,1159.145,283.56,294.558,,1159.145,58.3965,0.590667,59.0667,61.4053
1161.358,157.025,167.16,,1161.358,274.875,287.645,,1161.358,57.126,0.581131,58.1131,60.5584
1163.57,148.186,158.928,,1163.57,266.734,280.18,,1163.57,55.5557,0.567236,56.7236,59.4588
1165.783,144.344,152.049,,1165.783,261.591,272.169,,1165.783,55.1793,0.558659,55.8659,58.3442
1167.995,139.954,147.559,,1167.995,257.901,265.682,,1167.995,54.2666,0.555397,55.5397,57.4841
1170.208,139.199,144.39,,1170.208,253.846,260.44,,1170.208,54.836,0.554407,55.4407,56.7044
1172.42,141.623,142.77,,1172.42,242.062,253.921,,1172.42,58.5069,0.562264,56.2264,56.173
1174.633,132.499,140.228,,1174.633,239.549,247.296,,1174.633,55.3119,0.567044,56.7044,56.0025
1176.845,126.283,133.913,,1176.845,234.216,242.148,,1176.845,53.9173,0.55302,55.302,55.8847
1179.057,123.519,129.17,,1179.057,225.701,236.343,,1179.057,54.7268,0.546535,54.6535,55.6854
1181.27,127.207,127.128,,1181.27,220.366,229.356,,1181.27,57.7253,0.554282,55.4282,55.6188
1183.482,122.712,125.447,,1183.482,216.211,224.618,,1183.482,56.7557,0.558492,55.8492,55.6537
1185.695,121.58,123.716,,1185.695,208.601,218.908,,1185.695,58.2835,0.565152,56.5152,55.5841
1187.907,116.718,121.059,,1187.907,205.99,213.488,,1187.907,56.662,0.567056,56.7056,55.7242
1190.12,110.492,117.263,,1190.12,198.65,208.843,,1190.12,55.6214,0.561489,56.1489,56.0133
1192.332,106.901,112.594,,1192.332,194.219,202.265,,1192.332,55.0415,0.556665,55.6665,56.2158
1194.545,110.581,110.362,,1194.545,193.06,197.549,,1194.545,57.278,0.558654,55.8654,56.2392
1196.757,115.443,111.836,,1196.757,191.265,194.712,,1196.757,60.3576,0.574366,57.4366,56.4045
1198.969,116.668,114.169,,1198.969,187.559,192.304,,1198.969,62.2034,0.593689,59.3689,56.7669
1201.182,121.802,116.045,,1201.182,188.127,189.623,,1201.182,64.7446,0.611975,61.1975,57.5419
1203.394,123.299,118.884,,1203.394,189.694,189.042,,1203.394,64.9989,0.628878,62.8878,58.7614
1205.607,125.251,121.706,,1205.607,193.898,190.265,,1205.607,64.5963,0.639668,63.9668,60.2922
1207.819,123.203,123.182,,1207.819,189.193,191.079,,1207.819,65.1203,0.644664,64.4664,61.7869
1210.032,122.247,122.989,,1210.032,182.125,187.297,,1210.032,67.1226,0.65665,65.665,63.117
1212.244,120.383,121.943,,1212.244,182.512,184.81,,1212.244,65.959,0.65983,65.983,64.231
1214.456,114.793,120.459,,1214.456,171.173,181.129,,1214.456,67.0626,0.665047,66.5047,65.0298
1216.669,107.932,117.103,,1216.669,158.562,173.626,,1216.669,68.0693,0.674458,67.4458,65.7131
1218.881,100.528,111.053,,1218.881,149.498,164.236,,1218.881,67.2437,0.676182,67.6182,66.3488
1221.094,89.762,103.138,,1221.094,137.617,153.905,,1221.094,65.226,0.670138,67.0138,66.7998
1223.306,79.999,93.4284,,1223.306,130.102,143.31,,1223.306,61.4894,0.651933,65.1933,66.7601
1225.519,74.966,85.7773,,1225.519,112.498,132.02,,1225.519,66.6376,0.649727,64.9727,66.5066
1227.731,67.664,78.7865,,1227.731,103.806,118.791,,1227.731,65.1831,0.663234,66.3234,66.3403
1229.944,61.456,71.6843,,1229.944,97.388,110.104,,1229.944,63.1043,0.65106,65.106,65.9398
1232.156,55.071,65.2368,,1232.156,86.883,100.672,,1232.156,63.3852,0.64801,64.801,65.4365
1234.368,50.144,59.0309,,1234.368,89.199,93.3588,,1234.368,56.2159,0.632301,63.2301,64.978
1236.581,52.041,54.3181,,1236.581,82.519,88.89,,1236.581,63.0655,0.611071,61.1071,64.3635
1238.793,46.943,51.814,,1238.793,82.296,84.0546,,1238.793,57.0417,0.616433,61.6433,63.6128
1241.006,42.214,47.5961,,1241.006,74.533,80.6064,,1241.006,56.638,0.590475,59.0475,62.4935
1242.586,39.711,45.2066,,1242.586,64.806,76.3368,,1242.586,61.2767,0.592199,59.2199,