File: public_html/data/backup/makrolon-orange_209.csv
wavelength_nm,intensity,intensity_smoothed,,wavelength_nm2,intensity_i0,intensity_i0_smoothed,,wavelength_nm3,,transmission,transmission_perc,transmission_perc_smoothed
173.232,17.315,#N/A,,173.232,26.024,#N/A,,173.232,66.5347,#N/A,#N/A,#N/A
175.084,27.178,18.7613,,175.084,37.766,29.5889,,175.084,71.9642,0.634066,63.4066,#N/A
176.935,26.814,23.0545,,176.935,39.857,35.1131,,176.935,67.2755,0.656579,65.6579,#N/A
178.787,24.813,24.1226,,178.787,37.584,36.6576,,178.787,66.0201,0.658053,65.8053,#N/A
180.639,25.722,25.0904,,180.639,37.128,36.8855,,180.639,69.2793,0.680223,68.0223,#N/A
182.491,24.266,24.3342,,182.491,35.582,36.7372,,182.491,68.1974,0.662386,66.2386,#N/A
184.342,23.902,23.3939,,184.342,43.491,38.4251,,184.342,54.9585,0.608819,60.8819,65.6139
186.194,22.992,22.9159,,186.194,45.403,41.4134,,186.194,50.6398,0.553345,55.3345,64.1361
188.046,21.628,22.6708,,188.046,44.584,44.1242,,188.046,48.5107,0.513795,51.3795,61.5324
189.897,21.264,23.2703,,189.897,43.31,43.8577,,189.897,49.0972,0.530587,53.0587,58.7814
191.749,18.445,22.6723,,191.749,43.4,43.6501,,191.749,42.5,0.51941,51.941,55.9485
193.601,22.262,20.8633,,193.601,44.945,44.6684,,193.601,49.5316,0.467071,46.7071,52.8004
195.453,24.898,21.3889,,195.453,40.853,43.7579,,195.453,60.9453,0.488801,48.8801,50.7975
197.304,23.715,23.0263,,197.304,44.67,42.9419,,197.304,53.0893,0.53622,53.622,50.6115
199.156,23.351,22.9172,,199.156,41.124,43.5822,,199.156,56.7819,0.525838,52.5838,50.823
201.008,18.259,21.0068,,201.008,35.305,40.7299,,201.008,51.7179,0.515758,51.5758,50.5932
202.86,18.622,19.0589,,202.86,44.395,41.25,,202.86,41.9462,0.462034,46.2034,50.3804
204.711,21.258,19.1855,,204.711,43.03,42.5105,,204.711,49.4027,0.451312,45.1312,50.0144
206.563,19.893,18.9511,,206.563,41.575,41.5212,,206.563,47.8485,0.456419,45.6419,48.9392
208.415,22.893,19.822,,208.415,41.756,41.3975,,208.415,54.8257,0.478821,47.8821,47.831
210.267,19.255,20.1649,,210.267,38.119,40.5497,,210.267,50.5129,0.497288,49.7288,47.3664
212.118,27.8,21.9852,,212.118,41.481,39.618,,212.118,67.0186,0.554931,55.4931,48.0506
213.97,22.345,24.0271,,213.97,40.389,40.2939,,213.97,55.3245,0.596297,59.6297,50.6621
215.822,23.708,22.8124,,215.822,34.661,38.4798,,215.822,68.3996,0.59284,59.284,53.2454
217.673,24.525,24.4494,,217.673,41.933,38.7408,,217.673,58.4862,0.631101,63.1101,56.3167
219.525,21.797,24.657,,219.525,44.568,41.7339,,219.525,48.9073,0.590815,59.0815,58.4966
221.377,20.978,23.545,,221.377,44.749,42.7725,,221.377,46.8793,0.55047,55.047,59.3557
223.229,21.25,23.1358,,223.229,43.657,42.8089,,223.229,48.6749,0.540444,54.0444,58.4848
225.08,22.704,22.8842,,225.08,40.566,42.6129,,225.08,55.9681,0.537025,53.7025,57.4676
226.932,22.249,23.2037,,226.932,42.474,41.5992,,226.932,52.3826,0.557792,55.7792,56.2759
228.784,22.339,22.8699,,228.784,44.291,42.036,,228.784,50.4369,0.544054,54.4054,54.9487
230.636,22.52,23.1491,,230.636,42.926,42.496,,230.636,52.4624,0.544735,54.4735,54.3375
232.487,20.337,21.7756,,232.487,39.743,42.2131,,232.487,51.1713,0.51585,51.585,54.0536
234.339,18.245,20.2304,,234.339,42.197,41.7141,,234.339,43.2377,0.484977,48.4977,53.3365
236.191,20.881,20.6172,,236.191,45.378,43.5585,,236.191,46.0157,0.473323,47.3323,51.9096
238.043,23.516,21.6455,,238.043,56.013,46.5648,,238.043,41.9831,0.464848,46.4848,50.3282
239.894,27.607,23.0267,,239.894,61.103,53.244,,239.894,45.1811,0.432475,43.2475,48.4448
241.746,31.06,25.8693,,241.746,58.284,56.4093,,241.746,53.2908,0.4586,45.86,46.8826
243.598,34.059,29.5895,,243.598,62.828,58.4586,,243.598,54.2099,0.506162,50.6162,46.6154
245.449,33.059,31.0613,,245.449,67.464,62.2546,,245.449,49.0024,0.49894,49.894,47.187
247.301,39.149,33.791,,247.301,74.008,67.0479,,247.301,52.8983,0.503983,50.3983,47.762
249.153,41.239,38.5852,,249.153,76.462,71.9343,,249.153,53.934,0.536394,53.6394,49.2927
251.005,37.783,38.3395,,251.005,78.824,74.4033,,251.005,47.9334,0.515293,51.5293,50.9007
252.856,41.055,39.1359,,252.856,84.096,77.687,,252.856,48.8192,0.503764,50.3764,51.4045
254.681,37.872,39.3166,,254.681,83.277,80.7354,,254.681,45.4771,0.486982,48.6982,51.1542
256.513,41.872,39.527,,256.513,85.73,82.9864,,256.513,48.8417,0.476307,47.6307,50.7544
258.347,41.962,40.5651,,258.347,87.911,85.0558,,258.347,47.7324,0.476923,47.6923,49.964
260.181,43.415,42.0275,,260.181,84.546,85.9536,,260.181,51.3507,0.488955,48.8955,49.0374
262.017,43.233,42.954,,262.017,84.181,85.3776,,262.017,51.3572,0.503107,50.3107,48.8389
263.853,41.686,43.193,,263.853,88.362,86.106,,263.853,47.1764,0.501626,50.1626,48.8785
265.691,42.322,43.2735,,265.691,92.361,87.7832,,265.691,45.8224,0.492958,49.2958,49.1261
267.53,40.139,42.7664,,267.53,91.36,89.4831,,267.53,43.935,0.477928,47.7928,49.1917
269.369,32.865,38.9098,,269.369,92.995,90.0457,,269.369,35.3406,0.432112,43.2112,48.5862
271.21,35.137,36.0891,,271.21,97.903,92.4478,,271.21,35.8896,0.390373,39.0373,46.784
273.052,40.045,37.6427,,273.052,94.902,94.2616,,273.052,42.1962,0.399343,39.9343,44.6961
274.895,42.135,39.786,,274.895,88.446,92.3501,,274.895,47.6392,0.430817,43.0817,43.2523
276.739,41.862,41.1924,,276.739,88.082,90.1149,,276.739,47.5262,0.45711,45.711,42.5837
278.584,35.588,40.1693,,278.584,88.171,88.4909,,278.584,40.3625,0.453937,45.3937,42.503
280.431,34.587,37.7513,,280.431,90.716,89.2624,,280.431,38.1267,0.422925,42.2925,42.8761
282.278,37.677,36.9,,282.278,89.714,89.8304,,282.278,41.9968,0.410775,41.0775,43.2916
284.126,43.858,38.1479,,284.126,92.441,90.4788,,284.126,47.4443,0.421622,42.1622,43.4023
285.976,48.493,40.8362,,285.976,93.803,91.1303,,285.976,51.6966,0.448107,44.8107,43.3366
287.826,42.765,43.1177,,287.826,92.802,91.8899,,287.826,46.082,0.469232,46.9232,43.5006
289.678,38.31,41.9729,,289.678,89.255,90.7646,,289.678,42.922,0.462437,46.2437,43.9857
291.531,42.4,42.4845,,291.531,92.527,90.6522,,291.531,45.8245,0.468654,46.8654,44.943
293.385,40.035,42.4488,,293.385,90.526,91.3556,,293.385,44.2249,0.464655,46.4655,45.9029
295.239,38.852,40.6254,,295.239,91.07,90.4104,,295.239,42.6617,0.449345,44.9345,46.2893
297.095,43.397,40.5755,,297.095,94.887,92.2607,,297.095,45.7355,0.439792,43.9792,45.8581
298.952,44.487,42.3217,,298.952,95.431,93.5602,,298.952,46.6169,0.452348,45.2348,45.48
300.81,42.213,43.1599,,300.81,93.793,94.3954,,300.81,45.0066,0.457224,45.7224,45.3778
302.669,44.575,43.5391,,302.669,88.338,91.817,,302.669,50.4596,0.474194,47.4194,45.4169
304.53,42.211,44.1169,,304.53,89.609,89.7095,,304.53,47.1058,0.491774,49.1774,46.0263
306.391,37.028,41.6044,,306.391,88.062,89.1865,,306.391,42.0476,0.466487,46.6487,46.623
308.253,38.754,39.8178,,308.253,93.152,90.2314,,308.253,41.603,0.441285,44.1285,46.6723
310.117,42.208,40.0556,,310.117,91.605,91.4441,,310.117,46.0761,0.438034,43.8034,46.3018
311.981,39.843,40.4531,,311.981,91.422,91.101,,311.981,43.5814,0.444046,44.4046,45.9745
313.847,38.933,38.959,,313.847,95.33,91.2889,,313.847,40.8402,0.426766,42.6766,44.9886
315.713,39.114,39.3657,,315.713,94.329,93.5318,,315.713,41.4655,0.420881,42.0881,43.8637
317.581,40.658,39.8698,,317.581,98.418,94.6417,,317.581,41.3115,0.421271,42.1271,43.2004
319.45,44.111,41.7894,,319.45,96.326,96.297,,319.45,45.7935,0.433964,43.3964,43.024
321.319,43.11,41.974,,321.319,90.416,95.3567,,321.319,47.6796,0.440178,44.0178,42.9337
323.19,40.382,41.7272,,323.19,94.142,94.0786,,323.19,42.8948,0.443536,44.3536,43.0576
325.062,38.017,39.9347,,325.062,93.14,93.6586,,325.062,40.817,0.426386,42.6386,43.2184
326.935,44.107,40.6455,,326.935,97.503,94.264,,326.935,45.2366,0.431188,43.1188,43.3628
328.809,48.833,43.9684,,328.809,101.683,97.2686,,328.809,48.0247,0.452031,45.2031,43.7924
330.685,42.469,44.682,,330.685,99.227,99.6732,,330.685,42.7998,0.448285,44.8285,44.0824
332.561,47.195,44.878,,332.561,99.771,99.774,,332.561,47.3033,0.449796,44.9796,44.1397
334.438,45.012,45.2783,,334.438,97.679,98.6843,,334.438,46.0816,0.45882,45.882,44.4839
336.316,42.374,44.2579,,336.316,102.496,99.0986,,336.316,41.3421,0.446605,44.6605,44.9636
338.196,42.828,42.9936,,338.196,102.131,101.62,,338.196,41.9344,0.423082,42.3082,44.7608
340.076,48.099,44.0715,,340.076,99.947,101.981,,340.076,48.1245,0.432152,43.2152,44.2713
341.958,38.916,43.5222,,341.958,96.491,99.8221,,341.958,40.3312,0.435997,43.5997,44.1541
343.84,37.097,40.3085,,343.84,102.49,99.8795,,343.84,36.1957,0.403571,40.3571,43.4241
345.724,41.096,40.6994,,345.724,103.579,101.973,,345.724,39.676,0.39912,39.912,42.3509
347.609,36.189,39.7602,,347.609,98.042,100.992,,347.609,36.9117,0.393698,39.3698,41.6048
349.495,37.816,37.595,,349.495,106.676,101.908,,349.495,35.4494,0.36891,36.891,40.7105
351.382,45.532,39.9084,,351.382,105.402,104.69,,351.382,43.1984,0.381204,38.1204,39.4692
353.269,49.128,43.9037,,353.269,105.292,104.512,,353.269,46.6588,0.420082,42.0082,39.1953
355.158,43.993,45.2233,,355.158,115.346,107.968,,355.158,38.14,0.418856,41.8856,39.6563
357.048,44.076,44.3244,,357.048,110.673,111.077,,357.048,39.8254,0.399043,39.9043,39.7418
358.94,47.733,45.2028,,358.94,111.762,109.872,,358.94,42.7095,0.411414,41.1414,40.1221
360.832,41.301,44.9606,,360.832,113.053,110.748,,360.832,36.5324,0.405974,40.5974,40.8514
362.725,44.2,43.281,,362.725,115.754,112.854,,362.725,38.1844,0.383511,38.3511,40.6327
364.619,40.825,43.3865,,364.619,111.863,113.697,,364.619,36.4955,0.381597,38.1597,39.8198
366.515,44.604,42.2868,,366.515,120.36,114.787,,366.515,37.0588,0.368393,36.8393,39.1275
368.411,52.789,47.1218,,368.411,120.326,118.882,,368.411,43.8716,0.396375,39.6375,38.8417
370.308,47.017,48.748,,370.308,118.77,118.855,,370.308,39.5866,0.410145,41.0145,38.7875
372.207,51.562,47.6135,,372.207,125.223,119.59,,372.207,41.1761,0.398138,39.8138,38.9202
374.107,49.55,49.8575,,374.107,125.543,122.975,,374.107,39.4685,0.405427,40.5427,39.3172
376.007,39.91,47.4085,,376.007,125.651,124.338,,376.007,31.7626,0.381288,38.1288,39.62
377.909,37.75,41.9254,,377.909,131.77,125.91,,377.909,28.6484,0.33298,33.298,39.0525
379.812,51.611,42.049,,379.812,139.358,130.63,,379.812,37.0348,0.321893,32.1893,37.4498
381.716,53.066,48.802,,381.716,139.065,134.212,,381.716,38.1591,0.363618,36.3618,36.4797
383.62,46.916,49.6009,,383.62,145.735,138.843,,383.62,32.1927,0.357244,35.7244,35.7212
385.526,46.972,49.3442,,385.526,137.409,139.962,,385.526,34.1841,0.352554,35.2554,34.8136
387.433,47.44,48.5709,,387.433,141.168,139.514,,387.433,33.6053,0.348144,34.8144,34.6011
389.341,50.144,49.408,,389.341,145.868,142.1,,389.341,34.3763,0.3477,34.77,35.0501
391.25,48.811,49.6624,,391.25,151.691,146.125,,391.25,32.1779,0.339862,33.9862,35.0768
393.161,46.978,48.7908,,393.161,160.884,150.977,,393.161,29.1999,0.323167,32.3167,34.3979
395.072,45.865,47.8325,,395.072,183.671,161.883,,395.072,24.9713,0.295476,29.5476,33.5
396.984,50.45,48.0746,,396.984,208.373,180.311,,396.984,24.2114,0.26662,26.662,32.0465
398.897,48.904,49.2635,,398.897,246.89,204.525,,398.897,19.808,0.240868,24.0868,30.2053
400.812,51.825,49.4726,,400.812,313.157,242.129,,400.812,16.5492,0.204323,20.4323,27.7434
402.727,58.984,52.5184,,402.727,415.887,302.785,,402.727,14.1827,0.173452,17.3452,24.8797
404.644,59.806,56.2925,,404.644,560.653,396.039,,404.644,10.6672,0.142139,14.2139,21.8379
406.561,50.199,55.9489,,406.561,774.298,531.273,,406.561,6.48316,0.105311,10.5311,18.7143
408.48,53.22,53.4084,,408.48,1093.481,734.641,,408.48,4.86703,0.0726999,7.26999,15.396
410.4,61.503,55.6325,,410.4,1550.196,1031.22,,410.4,3.96743,0.053948,5.3948,12.2444
412.32,58.691,58.0933,,412.32,2222.732,1462.76,,412.32,2.64049,0.0397148,3.97148,9.46592
414.242,59.288,58.1747,,414.242,3163.461,2085.57,,414.242,1.87415,0.0278939,2.78939,7.01382
416.165,56.969,59.0566,,416.165,4451.47,2958.03,,416.165,1.27978,0.0199648,1.99648,5.02634
418.089,62.981,59.1837,,418.089,6190.243,4157.76,,418.089,1.01742,0.0142345,1.42345,3.61981
420.014,71.912,64.2458,,420.014,8451.974,5767.44,,420.014,0.850831,0.0111394,1.11394,2.64035
421.939,65.468,66.2251,,421.939,11338.22,7870.72,,421.939,0.57741,0.00841411,0.841411,1.90913
423.866,68.155,65.7358,,423.866,14858.071,10548.9,,423.866,0.458707,0.00623155,0.623155,1.38872
425.795,70.883,68.4682,,425.795,18999.297,13820.5,,425.795,0.373082,0.00495409,0.495409,1.02904
427.724,71.336,69.7871,,427.724,23830.084,17724.6,,427.724,0.299353,0.00393731,0.393731,0.782683
429.654,75.718,70.3672,,429.654,29330.442,22281.3,,429.654,0.258155,0.00315812,0.315812,0.604926
431.585,78.46,72.4106,,431.585,35524.486,27504.1,,431.585,0.220862,0.00263272,0.263272,0.468653
433.517,84.19,76.2932,,433.517,42427.542,33418,,433.517,0.198432,0.002283,0.2283,0.37368
435.451,81.292,80.533,,435.451,49887.621,39995.1,,435.451,0.16295,0.00201357,0.201357,0.306554
437.385,79.643,79.8755,,437.385,57254.674,47073.2,,437.385,0.139103,0.00169684,0.169684,0.25543
439.32,75.178,78.5345,,439.32,62514.822,53892.5,,439.32,0.120256,0.00145725,0.145725,0.216674
441.257,71.221,75.6751,,441.257,64000,58913.9,,441.257,0.111283,0.0012845,0.12845,0.186543
443.194,67.704,72.4336,,443.194,63674.793,61526.8,,443.194,0.106328,0.00117727,0.117727,0.162515
445.133,61.945,68.0029,,445.133,62227.685,62338.3,,445.133,0.0995457,0.00109087,0.109087,0.142499
447.072,67.541,66.4598,,447.072,59293.563,61635.3,,447.072,0.113909,0.00107827,0.107827,0.127291
449.013,66.247,66.6146,,449.013,53142.307,59010.9,,449.013,0.12466,0.00112885,0.112885,0.118277
450.955,58.504,64.6423,,450.955,44477.703,53779.7,,450.955,0.131536,0.00120198,0.120198,0.114533
452.897,54.47,60.011,,452.897,36198.569,46764.1,,452.897,0.150476,0.00128327,0.128327,0.115029
454.841,59.11,57.8335,,454.841,29497.312,39472.2,,454.841,0.200391,0.00146517,0.146517,0.120019
456.786,52.904,56.8933,,456.786,24370.579,32900.3,,456.786,0.217081,0.00172926,0.172926,0.131074
458.732,52.997,55.2961,,458.732,20454.45,27407.8,,458.732,0.259098,0.00201753,0.201753,0.146818
460.679,51.601,54.0002,,460.679,17336.43,22959.3,,460.679,0.297645,0.002352,0.2352,0.167596
462.627,52.18,52.2691,,462.627,14707.613,19335.7,,462.627,0.354782,0.00270325,0.270325,0.193423
464.576,53.641,52.4933,,464.576,12463.222,16334.4,,464.576,0.430394,0.00321366,0.321366,0.226052
466.526,53.965,53.4883,,466.526,10551.892,13810.2,,466.526,0.511425,0.00387309,0.387309,0.265671
468.477,51.32,53.4056,,468.477,9025.241,11703.9,,468.477,0.568627,0.00456307,0.456307,0.313491
470.429,48.362,51.2408,,470.429,7818.333,9984.2,,470.429,0.618572,0.00513219,0.513219,0.366971
472.382,48.111,49.5931,,472.382,6899.26,8608.48,,472.382,0.697336,0.00576096,0.576096,0.42565
474.336,49.477,48.6951,,474.336,6186.437,7525.12,,474.336,0.799766,0.00647101,0.647101,0.488947
476.292,48.396,49.4516,,476.292,5650.679,6682.84,,476.292,0.856463,0.00739979,0.739979,0.558204
478.248,46.141,47.369,,478.248,5248.95,6036.29,,478.248,0.879052,0.00784737,0.784737,0.625688
480.205,54.295,48.9141,,480.205,4936.14,5542.55,,480.205,1.09995,0.00882521,0.882521,0.694957
482.164,55.222,51.9847,,482.164,4730.842,5169.31,,482.164,1.16728,0.0100564,1.00564,0.77621
484.123,53.446,53.1867,,484.123,4621.49,4909.27,,484.123,1.15647,0.0108339,1.08339,0.862902
486.083,56.754,53.5066,,486.083,4648.985,4759.32,,486.083,1.22078,0.0112425,1.12425,0.942728
488.045,59.155,55.1519,,488.045,4831.615,4743.7,,488.045,1.22433,0.0116263,1.16263,1.01692
490.007,61.927,56.8553,,490.007,5132.308,4858.48,,490.007,1.20661,0.0117023,1.17023,1.08328
491.971,64.448,59.9644,,491.971,5580.085,5109.18,,491.971,1.15496,0.0117366,1.17366,1.1285
493.936,72.216,63.527,,493.936,6134.021,5491.74,,493.936,1.1773,0.0115677,1.15677,1.15053
495.901,82.625,69.9578,,495.901,6805.139,5993.71,,495.901,1.21416,0.0116719,1.16719,1.16282
497.868,93.445,79.5272,,497.868,7560.527,6605.84,,497.868,1.23596,0.0120389,1.20389,1.17241
499.836,98.396,87.5453,,499.836,8398.979,7313.26,,499.836,1.17152,0.0119708,1.19708,1.17928
501.804,116.21,97.6108,,501.804,9288.26,8101.74,,501.804,1.25115,0.0120481,1.20481,1.18378
503.774,140.284,114.035,,503.774,10243.017,8963.53,,503.774,1.36956,0.0127221,1.27221,1.20014
505.745,160.658,134.45,,505.745,11150.964,9863.56,,505.745,1.44075,0.013631,1.3631,1.23321
507.717,177.478,151.944,,507.717,12055.608,10765.2,,507.717,1.47216,0.0141144,1.41144,1.27398
509.69,214.592,174.477,,509.69,12973.535,11674.3,,509.69,1.65408,0.0149454,1.49454,1.3228
511.664,247.021,204.292,,511.664,13871.801,12583.8,,511.664,1.78074,0.0162345,1.62345,1.39664
513.639,291.058,236.636,,513.639,14671.604,13461.2,,513.639,1.98382,0.0175791,1.75791,1.48861
515.615,359.233,281.894,,515.615,15397.06,14281.8,,515.615,2.33313,0.019738,1.9738,1.60142
517.592,431.323,340.529,,517.592,16069.592,15040.5,,517.592,2.68409,0.0226407,2.26407,1.75142
519.57,528.511,411.182,,519.57,16637.44,15729,,519.57,3.17664,0.0261417,2.61417,1.95362
521.549,666.439,506.002,,521.549,17143.404,16334.7,,521.549,3.88744,0.0309772,3.09772,2.21853
523.529,846.601,634.038,,523.529,17567.495,16868.9,,523.529,4.81913,0.0375862,3.75862,2.57424
525.51,1094.57,805.015,,525.51,17912.017,17326.5,,525.51,6.11081,0.0464614,4.64614,3.05345
527.493,1435.026,1038.41,,527.493,18129.767,17691.4,,527.493,7.9153,0.0586961,5.86961,3.69669
529.476,1881.228,1353.59,,529.476,18298.241,17965.2,,529.476,10.2809,0.075345,7.5345,4.57127
531.46,2444.64,1767.01,,531.46,18376.976,18162.2,,531.46,13.3027,0.0972902,9.72902,5.75536
533.446,3159.278,2296.31,,533.446,18394.461,18277.2,,533.446,17.1752,0.125638,12.5638,7.33423
535.432,4043.066,2965.66,,535.432,18380.008,18335.7,,535.432,21.9971,0.161742,16.1742,9.41067
537.419,5045.802,3778.97,,537.419,18314.218,18342.9,,537.419,27.5513,0.206018,20.6018,12.0878
539.408,6165.651,4721.8,,539.408,18241.306,18310.1,,539.408,33.8005,0.257879,25.7879,15.4397
541.397,7355.53,5777.33,,541.397,18116.433,18244.7,,541.397,40.6014,0.316658,31.6658,19.5106
543.388,8553.121,6910.15,,543.388,18010.748,18152.8,,543.388,47.489,0.380667,38.0667,24.3026
545.379,9719.986,8065.51,,545.379,17860.086,18041.7,,545.379,54.423,0.447049,44.7049,29.7426
547.372,10825.506,9216.61,,547.372,17739.367,17915.4,,547.372,61.0253,0.514451,51.4451,35.7043
549.365,11791.887,10308.6,,549.365,17602.812,17792,,549.365,66.9887,0.579396,57.9396,42.0116
551.36,12662.21,11308.3,,551.36,17418.725,17651.3,,551.36,72.6931,0.640648,64.0648,48.4591
553.356,13330.247,12193.4,,553.356,17167.843,17468.1,,553.356,77.6466,0.698038,69.8038,54.8571
555.352,13840.071,12920.3,,555.352,16964.686,17256.7,,555.352,81.5817,0.748712,74.8712,61.0198
557.35,14249.946,13511.5,,557.35,16744.941,17055.5,,557.35,85.1,0.792207,79.2207,66.7752
559.349,14530.6,13974,,559.349,16493.069,16829.6,,559.349,88.1013,0.83032,83.032,72.0193
561.348,14693.786,14307.7,,561.348,16250.673,16589.7,,561.348,90.4196,0.862444,86.2444,76.7068
563.349,14810.318,14544.9,,563.349,15993.017,16348.1,,563.349,92.6049,0.889696,88.9696,80.8018
565.351,14816.797,14688.3,,565.351,15706.557,16090.7,,565.351,94.3351,0.912843,91.2843,84.3224
567.354,14772.679,14748,,567.354,15408.025,15816.3,,567.354,95.8765,0.932458,93.2458,87.3333
569.358,14673.331,14736.7,,569.358,15122.221,15533,,569.358,97.0316,0.94873,94.873,89.8936
571.363,14537.524,14670.6,,571.363,14803.019,15236.5,,571.363,98.2065,0.962859,96.2859,92.0556
573.368,14351.989,14553.9,,573.368,14476.131,14927.8,,573.368,99.1424,0.974953,97.4953,93.8959
575.375,14137.331,14393.6,,575.375,14137.525,14603.3,,575.375,99.9986,0.98564,98.564,95.4609
577.383,13926.658,14209.8,,577.383,13856.848,14288,,577.383,100.504,0.994523,99.4523,96.7992
579.392,13707.734,14008.1,,579.392,13553.915,13989.5,,579.392,101.135,1.00133,100.133,97.9286
581.402,13467.476,13792.8,,581.402,13220.763,13677.3,,581.402,101.866,1.00844,100.844,98.9022
583.413,13188.473,13553.1,,583.413,12883.828,13351.8,,583.413,102.365,1.01508,101.508,99.7514
585.425,12906.657,13290,,585.425,12565.841,13024.3,,585.425,102.712,1.02039,102.039,100.494
587.439,12625.277,13019.4,,587.439,12218.756,12701.1,,587.439,103.327,1.02506,102.506,101.138
589.453,12332.519,12741.2,,589.453,11860.998,12358.4,,589.453,103.975,1.03097,103.097,101.739
591.468,12027.285,12453.7,,591.468,11532.923,12014.7,,591.468,104.287,1.03654,103.654,102.321
593.484,11696.825,12146.8,,593.484,11205.222,11680.4,,593.484,104.387,1.03992,103.992,102.847
595.501,11385.226,11831.7,,595.501,10855.083,11343.6,,595.501,104.884,1.04302,104.302,103.313
597.519,11053.508,11517,,597.519,10499.447,10998.9,,597.519,105.277,1.0471,104.71,103.758
599.539,10733.366,11195.3,,599.539,10162.072,10650.4,,599.539,105.622,1.05116,105.116,104.182
601.559,10380.65,10868.8,,601.559,9798.777,10300.6,,601.559,105.938,1.05515,105.515,104.57
603.58,10028.47,10525.9,,603.58,9459.679,9949.95,,603.58,106.013,1.05788,105.788,104.93
605.602,9674.151,10177.5,,605.602,9106.042,9603.99,,605.602,106.239,1.05972,105.972,105.271
607.626,9339.872,9827.86,,607.626,8752.966,9252.65,,607.626,106.705,1.06217,106.217,105.586
609.65,9011.144,9488.64,,609.65,8417.211,8907.23,,609.65,107.056,1.06527,106.527,105.878
611.675,8673.932,9153.67,,611.675,8081.183,8566.92,,611.675,107.335,1.06849,106.849,106.158
613.702,8314.408,8809.7,,613.702,7750.473,8230.89,,613.702,107.276,1.07032,107.032,106.413
615.729,7980.439,8468.63,,615.729,7428.717,7899.72,,615.729,107.427,1.07202,107.202,106.657
617.757,7639.567,8126.94,,617.757,7107.102,7574.24,,617.757,107.492,1.07297,107.297,106.886
619.787,7330.046,7795.63,,619.787,6777.411,7248.79,,619.787,108.154,1.07544,107.544,107.097
621.817,6991.383,7465.87,,621.817,6479.382,6926.44,,621.817,107.902,1.07788,107.788,107.299
623.849,6691.228,7140.2,,623.849,6197.39,6621.21,,623.849,107.968,1.07838,107.838,107.465
625.881,6400.233,6829.6,,625.881,5898.7,6323.7,,625.881,108.502,1.08,108,107.623
627.915,6120.297,6534.01,,627.915,5597.269,6026.39,,627.915,109.344,1.08423,108.423,107.82
629.949,5842.022,6249.15,,629.949,5317.543,5729.63,,629.949,109.863,1.09067,109.067,108.104
631.985,5568.113,5966.11,,631.985,5078.235,5452.72,,631.985,109.647,1.09415,109.415,108.418
634.021,5320.159,5693.39,,634.021,4845.814,5199.17,,634.021,109.789,1.09506,109.506,108.734
636.059,5085.044,5437.03,,636.059,4614.617,4957.05,,636.059,110.194,1.09683,109.683,109.061
638.098,4838.03,5190.73,,638.098,4396.936,4722.31,,638.098,110.032,1.09919,109.919,109.385
640.137,4588.788,4940.56,,640.137,4190.298,4500.78,,640.137,109.51,1.09771,109.771,109.6
642.178,4358.643,4697.97,,642.178,3977.679,4285.8,,642.178,109.578,1.09617,109.617,109.678
644.219,4138.456,4463.21,,644.219,3776.175,4074.28,,644.219,109.594,1.09546,109.546,109.7
646.262,3936.714,4240.13,,646.262,3579.935,3869.46,,646.262,109.966,1.09579,109.579,109.699
648.306,3738.385,4029.21,,648.306,3390.26,3668.67,,648.306,110.268,1.09827,109.827,109.687
650.35,3534.847,3823.68,,650.35,3226.089,3481.54,,650.35,109.571,1.09827,109.827,109.682
652.396,3346.671,3624.29,,652.396,3054.629,3304.68,,652.396,109.561,1.09672,109.672,109.684
654.443,3168.063,3435.93,,654.443,2884.204,3130.37,,654.443,109.842,1.09761,109.761,109.71
656.49,2987.976,3249.81,,656.49,2731.414,2962.54,,656.49,109.393,1.09697,109.697,109.745
658.539,2830.826,3071.65,,658.539,2580.731,2804.5,,658.539,109.691,1.09526,109.526,109.723
660.589,2677.929,2906.67,,660.589,2427.603,2648.13,,660.589,110.312,1.09763,109.763,109.687
662.64,2532.209,2749.64,,662.64,2288.091,2497.08,,662.64,110.669,1.10114,110.114,109.739
664.691,2391.71,2599.09,,664.691,2164.156,2356.33,,664.691,110.515,1.10302,110.302,109.849
666.744,2248.641,2452.94,,666.744,2045.696,2226.29,,666.744,109.921,1.10181,110.181,109.943
668.798,2111.108,2310.12,,668.798,1925.154,2100.21,,668.798,109.659,1.09995,109.995,110.03
670.853,1988.126,2175.28,,670.853,1815.214,1979.64,,670.853,109.526,1.09883,109.883,110.083
672.909,1881.34,2050.62,,672.909,1715.56,1867.31,,672.909,109.663,1.09817,109.817,110.063
674.965,1763.614,1933.09,,674.965,1611.947,1762.64,,674.965,109.409,1.0967,109.67,109.963
677.023,1652.442,1815.33,,677.023,1524.155,1660.97,,677.023,108.417,1.09294,109.294,109.8
679.082,1570.204,1710.23,,679.082,1432.954,1566.48,,679.082,109.578,1.09176,109.176,109.617
681.142,1472.857,1612.92,,681.142,1354.302,1476.52,,681.142,108.754,1.09238,109.238,109.493
683.203,1385.613,1516.35,,683.203,1270.438,1392.78,,683.203,109.066,1.08872,108.872,109.329
685.265,1298.498,1426.02,,685.265,1184.315,1306.68,,685.265,109.641,1.09133,109.133,109.199
687.327,1212.425,1335.86,,687.327,1118.864,1225.41,,687.327,108.362,1.09013,109.013,109.117
689.391,1143.366,1253.16,,689.391,1065.445,1157.43,,689.391,107.313,1.08271,108.271,108.997
691.456,1082.54,1180.8,,691.456,1002.409,1093.7,,691.456,107.994,1.07964,107.964,108.759
693.522,1017.397,1112.44,,693.522,947.984,1031.78,,693.522,107.322,1.07818,107.818,108.535
695.589,955.442,1046.69,,695.589,895.937,974.024,,695.589,106.642,1.07461,107.461,108.266
697.657,890.156,982.735,,697.657,844.05,920.439,,697.657,105.462,1.06768,106.768,107.856
699.726,836.723,920.912,,699.726,793.442,867.434,,699.726,105.455,1.06165,106.165,107.396
701.796,786.122,864.939,,701.796,752.07,817.616,,701.796,104.528,1.05788,105.788,106.991
703.867,740.108,813.033,,703.867,717.422,774.53,,703.867,103.162,1.04971,104.971,106.477
705.939,697.801,765.013,,705.939,679.315,735.617,,705.939,102.721,1.03996,103.996,105.822
708.012,655.404,719.39,,708.012,636.773,694.687,,708.012,102.926,1.03556,103.556,105.145
710.085,613.74,674.887,,710.085,606.364,655.382,,710.085,101.216,1.02976,102.976,104.52
712.16,576.43,633.625,,712.16,566.369,620.068,,712.16,101.776,1.02186,102.186,103.823
714.236,544.162,596.234,,714.236,532.352,582.695,,714.236,102.218,1.02323,102.323,103.214
716.313,507.684,560.401,,716.313,505.864,550.157,,716.313,100.36,1.01862,101.862,102.765
718.391,470.81,522.171,,718.391,472.365,517.728,,718.391,99.6708,1.00858,100.858,102.27
720.47,449.193,490.227,,720.47,447.827,487.368,,720.47,100.305,1.00587,100.587,101.751
722.55,414.004,459.749,,722.55,433.743,462.584,,722.55,95.4491,0.993872,99.3872,101.238
724.631,393.147,430.333,,724.631,409.02,440.922,,724.631,96.1193,0.975984,97.5984,100.448
726.713,374.112,406.712,,726.713,388.541,418.692,,726.713,96.2864,0.971386,97.1386,99.4915
728.796,350.584,384.194,,728.796,371.186,398.504,,728.796,94.4497,0.964093,96.4093,98.5907
730.88,332.679,361.226,,730.88,349.794,379.032,,730.88,95.1071,0.95302,95.302,97.6335
732.965,317.787,342.657,,732.965,336.604,360.43,,732.965,94.4098,0.950689,95.0689,96.6573
735.051,302.357,325.525,,735.051,326.387,344.836,,735.051,92.6376,0.943998,94.3998,95.9227
737.138,283.993,309.71,,737.138,309.643,331.615,,737.138,91.7163,0.933944,93.3944,95.2279
739.226,269.233,292.768,,739.226,297.074,317.355,,739.226,90.6283,0.922524,92.2524,94.4123
741.315,259.415,277.732,,741.315,293.86,307.387,,741.315,88.2784,0.903525,90.3525,93.4751
743.405,248.105,264.836,,743.405,277.141,297.104,,743.405,89.523,0.891392,89.1392,92.3874
745.496,233.46,253.672,,745.496,267.722,284.507,,745.496,87.2024,0.891622,89.1622,91.3382
747.588,226.034,241.419,,747.588,263.788,275.873,,747.588,85.6877,0.875111,87.5111,90.2139
749.681,214.833,231.108,,749.681,251.092,266.248,,749.681,85.5595,0.868017,86.8017,89.0841
751.775,201.871,218.804,,751.775,245.16,256.03,,751.775,82.3426,0.854603,85.4603,88.0109
753.87,196.091,209.161,,753.87,247.608,251.097,,753.87,79.1941,0.832989,83.2989,86.912
755.966,191.547,200.902,,755.966,236.574,246.921,,755.966,80.9671,0.81363,81.363,85.4874
758.063,174.025,192.362,,758.063,221.635,236.698,,758.063,78.5187,0.812688,81.2688,84.1433
760.161,150.244,176.371,,760.161,205.981,223.779,,760.161,72.9407,0.78815,78.815,82.7188
762.26,145.127,161.293,,762.26,201.861,212.771,,762.26,71.8945,0.758057,75.8057,80.8846
764.36,144.488,152.877,,764.36,202.38,207.356,,764.36,71.3944,0.737269,73.7269,78.9284
766.461,144.633,149.127,,766.461,204.113,204.812,,766.461,70.8593,0.728119,72.8119,77.1824
768.562,141.591,146.516,,768.562,201.143,203.635,,768.562,70.3932,0.719501,71.9501,75.4443
770.665,136.437,143.208,,770.665,193.588,199.951,,770.665,70.478,0.716214,71.6214,73.8037
772.769,129.854,138.494,,772.769,193.397,196.739,,772.769,67.1438,0.703947,70.3947,72.5523
774.874,129.756,134.253,,774.874,185.475,193.222,,774.874,69.9588,0.694813,69.4813,71.581
776.98,125.256,130.563,,776.98,189.418,190.42,,776.98,66.1268,0.68566,68.566,70.7626
779.087,122.699,127.18,,779.087,181.983,187.565,,779.087,67.4233,0.678061,67.8061,69.9057
781.195,116.682,123.832,,781.195,180.753,184.49,,781.195,64.5533,0.671213,67.1213,69.0756
783.304,110.223,117.347,,783.304,173.935,181.758,,783.304,63.3702,0.645622,64.5622,67.944
785.414,111.001,113.356,,785.414,167.726,177.097,,785.414,66.18,0.640078,64.0078,66.8351
787.525,103.091,109.586,,787.525,158.788,170.284,,787.525,64.9237,0.643547,64.3547,65.9088
789.637,98.375,105.215,,789.637,156.031,163.472,,789.637,63.0484,0.643629,64.3629,65.2037
791.749,94.948,101.589,,791.749,153.463,159.225,,791.749,61.8703,0.638025,63.8025,64.536
793.863,91.026,97.4272,,793.863,150.563,156.128,,793.863,60.4571,0.624023,62.4023,63.9459
795.978,90.782,94.4538,,795.978,150.986,153.586,,795.978,60.1261,0.614989,61.4989,63.4865
798.094,86.919,91.2223,,798.094,150.643,152.262,,798.094,57.6987,0.599113,59.9113,62.7581
800.211,86.783,88.9073,,800.211,146.816,150.657,,800.211,59.11,0.59013,59.013,61.7878
802.329,86.919,87.7373,,802.329,147.662,149.629,,802.329,58.8635,0.586366,58.6366,60.7564
804.448,83.297,86.3334,,804.448,146.668,148.293,,804.448,56.7929,0.582181,58.2181,59.8388
806.567,80.667,83.6478,,806.567,155.107,149.196,,806.567,52.0073,0.560656,56.0656,58.8658
808.688,80.472,81.5867,,808.688,147.652,150.275,,808.688,54.5011,0.542917,54.2917,57.6737
810.81,77.121,79.4511,,810.81,146.27,148.305,,810.81,52.7251,0.535727,53.5727,56.6091
812.933,78.635,77.9342,,812.933,144.419,147.154,,812.933,54.4492,0.52961,52.961,55.5249
815.057,77.264,78.6064,,815.057,153.045,147.675,,815.057,50.4845,0.532295,53.2295,54.5566
817.181,70.811,76.5969,,817.181,155.736,151.328,,817.181,45.4686,0.506163,50.6163,53.4302
819.307,72.186,73.8881,,819.307,151.672,152.245,,819.307,47.5935,0.485323,48.5323,52.2597
821.434,74.829,73.5441,,821.434,160.59,153.76,,821.434,46.5963,0.478303,47.8303,51.1032
823.562,72.408,73.3278,,823.562,163.951,158.246,,823.562,44.1644,0.463379,46.3379,49.8705
825.69,68.31,71.1484,,825.69,174.003,163.075,,825.69,39.2579,0.436293,43.6293,48.2303
827.82,64.219,68.2486,,827.82,189.855,173.097,,827.82,33.8253,0.39428,39.428,46.0535
829.951,66.513,67.3915,,829.951,205.274,186.255,,829.951,32.4021,0.361824,36.1824,43.725
832.082,66.224,67.381,,832.082,215.495,198.43,,832.082,30.7311,0.339571,33.9571,41.137
834.215,66.052,65.9071,,834.215,216.898,206.786,,834.215,30.453,0.318721,31.8721,38.3381
836.349,62.731,64.5182,,836.349,219.103,211.731,,836.349,28.6308,0.304718,30.4718,35.5882
838.483,61.225,62.0735,,838.483,241.528,220.303,,838.483,25.349,0.281764,28.1764,33.1237
840.619,63.82,62.3726,,840.619,278.337,239.836,,840.619,22.929,0.260063,26.0063,30.987
842.755,62.024,62.1237,,842.755,333.384,272.42,,842.755,18.6044,0.228044,22.8044,28.8514
844.893,70.76,64.4863,,844.893,400.011,320.492,,844.893,17.6895,0.20121,20.121,26.5441
847.032,70.066,68.2474,,847.032,474.535,380.132,,847.032,14.7652,0.179536,17.9536,24.1403
849.171,73.565,69.2086,,849.171,556.983,450.155,,849.171,13.2078,0.153744,15.3744,21.5786
851.312,71.363,72.3616,,851.312,630.508,525.136,,851.312,11.3183,0.137796,13.7796,19.0929
853.453,66.956,71.3712,,853.453,703.737,599.605,,853.453,9.51435,0.11903,11.903,16.7542
855.596,64.157,67.9986,,855.596,769.709,671.021,,855.596,8.33523,0.101336,10.1336,14.6903
857.739,61.896,65.3668,,857.739,829.831,738.184,,857.739,7.45887,0.0885508,8.85508,12.7868
859.884,62.035,63.3448,,859.884,871.417,796.955,,859.884,7.11887,0.0794835,7.94835,11.153
862.029,57.889,61.3441,,862.029,905.793,845.071,,862.029,6.39097,0.0725905,7.25905,9.79426
864.175,48.967,57.7322,,864.175,932.101,884.121,,864.175,5.2534,0.0652989,6.52989,8.61469
866.323,40.684,49.8692,,866.323,956.712,915.345,,866.323,4.25248,0.0544813,5.44813,7.60641
868.471,41.283,45.8328,,868.471,993.127,945.857,,868.471,4.15687,0.0484564,4.84564,6.74203
870.621,39.01,43.0315,,870.621,1031.509,979.757,,870.621,3.78184,0.0439206,4.39206,6.00321
872.771,42.398,42.0422,,872.771,1082.553,1018.45,,872.771,3.91648,0.0412804,4.12804,5.34382
874.922,41.998,41.4718,,874.922,1157.861,1070.42,,874.922,3.62721,0.0387437,3.87437,4.77701
877.075,39.856,41.0144,,877.075,1234.603,1135.19,,877.075,3.22824,0.03613,3.613,4.32499
879.228,37.458,39.3374,,879.228,1331.316,1211.7,,879.228,2.81361,0.0324645,3.24645,3.9852
881.382,39.152,38.6562,,881.382,1420.587,1298.52,,881.382,2.75604,0.0297695,2.97695,3.68012
883.537,37.507,38.8944,,883.537,1504.383,1384.85,,883.537,2.49318,0.0280857,2.80857,3.41549
885.694,42.696,39.3193,,885.694,1575.576,1466.43,,885.694,2.70987,0.0268129,2.68129,3.16574
887.851,44.697,41.9357,,887.851,1624.133,1535.65,,887.851,2.75205,0.0273082,2.73082,2.9664
890.009,42.612,43.109,,890.009,1658.197,1592.38,,890.009,2.56978,0.0270721,2.70721,2.82597
892.168,42.578,43.1724,,892.168,1654.916,1627.2,,892.168,2.57282,0.0265318,2.65318,2.74245
894.328,41.328,41.7342,,894.328,1623.094,1635.81,,894.328,2.54625,0.0255129,2.55129,2.68249
896.489,45.124,42.0044,,896.489,1559.063,1613.7,,896.489,2.8943,0.0260299,2.60299,2.65391
898.651,46.707,44.0158,,898.651,1463.155,1561.85,,898.651,3.19221,0.0281818,2.81818,2.66541
900.815,40.924,43.7623,,900.815,1371.84,1486.62,,900.815,2.98315,0.0294375,2.94375,2.7033
902.979,44.993,42.756,,902.979,1278.203,1404.37,,902.979,3.52002,0.030445,3.0445,2.76272
905.144,45.208,44.4458,,905.144,1176.028,1312.13,,905.144,3.84413,0.033873,3.3873,2.89051
907.31,45.138,44.5869,,907.31,1086.914,1218.25,,907.31,4.15286,0.0365992,3.65992,3.08551
909.477,43.966,44.7136,,909.477,995.007,1125.59,,909.477,4.41866,0.0397247,3.97247,3.31012
911.644,43.972,44.578,,911.644,906.569,1034.2,,911.644,4.85038,0.0431039,4.31039,3.55904
913.813,42.139,43.5471,,913.813,837.096,949.149,,913.813,5.03395,0.0458801,4.58801,3.84935
915.983,43.492,42.82,,915.983,779.347,876.084,,915.983,5.58057,0.0488766,4.88766,4.15756
918.154,42.299,42.0891,,918.154,720.052,810.915,,918.154,5.87444,0.0519033,5.19033,4.46533
920.326,43.651,43.6451,,920.326,664.393,749.018,,920.326,6.57006,0.0582697,5.82697,4.81404
922.499,42.731,43.8314,,922.499,626.552,695.278,,922.499,6.82002,0.0630416,6.30416,5.2026
924.673,38.446,42.7308,,924.673,585.166,648.683,,924.673,6.5701,0.0658732,6.58732,5.59921
926.847,34.798,39.0835,,926.847,544.415,604.98,,926.847,6.39182,0.0646029,6.46029,5.93429
929.023,41.15,37.8347,,929.023,503.118,561.581,,929.023,8.179,0.0673719,6.73719,6.22926
931.2,47.865,40.7492,,931.2,461.003,519.111,,931.2,10.3828,0.078498,7.8498,6.61833
933.377,43.217,43.5663,,933.377,423.069,477.983,,933.377,10.2151,0.0911461,9.11461,7.14466
935.556,44.113,43.2755,,935.556,394.863,441.516,,935.556,11.1717,0.0980156,9.80156,7.74825
937.736,43.464,43.8651,,937.736,366.565,410.534,,937.736,11.8571,0.106849,10.6849,8.48498
939.916,41.179,43.9438,,939.916,346.448,382.393,,939.916,11.8861,0.114918,11.4918,9.38603
942.098,36.165,41.0498,,942.098,328.331,358.575,,942.098,11.0148,0.11448,11.448,10.2008
944.28,41.061,38.8012,,944.28,309.213,337.735,,944.28,13.2792,0.114886,11.4886,10.7517
946.464,41.23,39.276,,946.464,292.368,318.275,,946.464,14.1021,0.123403,12.3403,11.254
948.648,42.852,40.7372,,948.648,277.341,301.738,,948.648,15.451,0.135009,13.5009,11.8176
950.834,42.202,41.4196,,950.834,265.768,285.869,,950.834,15.8793,0.14489,14.489,12.4265
953.02,44.37,42.0806,,953.02,255.012,272.17,,953.02,17.3992,0.154612,15.4612,13.1286
955.207,41.81,42.5186,,955.207,249.711,262,,955.207,16.7434,0.162285,16.2285,14.0235
957.396,46.523,43.6616,,957.396,236.5,252.082,,957.396,19.6715,0.173204,17.3204,14.9844
959.585,47.144,44.5144,,959.585,236.106,242.885,,959.585,19.9673,0.183274,18.3274,15.9821
961.775,45.22,45.1552,,961.775,229.44,237.911,,961.775,19.7089,0.189799,18.9799,16.8799
963.966,42.841,43.9143,,963.966,221.773,231.494,,963.966,19.3175,0.1897,18.97,17.6493
966.159,42.916,43.2276,,966.159,219.105,225.236,,966.159,19.587,0.191922,19.1922,18.2565
968.352,42.628,42.6119,,968.352,220.619,222.053,,968.352,19.322,0.1919,19.19,18.7548
970.546,46.157,43.5166,,970.546,218.496,220.446,,970.546,21.1249,0.197402,19.7402,19.0665
972.741,39.868,42.1282,,972.741,219.555,220.312,,972.741,18.1585,0.191221,19.1221,19.2244
974.937,40.397,40.5112,,974.937,218.158,219.266,,974.937,18.5173,0.184758,18.4758,19.1465
977.134,43.471,41.6469,,977.134,219.124,219.024,,977.134,19.8385,0.190148,19.0148,19.1035
979.332,44.545,43.4839,,979.332,221.817,219.666,,979.332,20.0819,0.197954,19.7954,19.1623
981.531,43.073,43.174,,981.531,227.964,223.572,,981.531,18.8947,0.19311,19.311,19.2024
983.731,41.873,42.7027,,983.731,233.383,227.857,,983.731,17.9418,0.18741,18.741,19.0733
985.932,41.946,41.9817,,985.932,240.438,232.49,,985.932,17.4457,0.180574,18.0574,18.972
988.134,42.655,41.8961,,988.134,249.583,238.987,,988.134,17.0905,0.175306,17.5306,18.7957
990.336,43.182,42.668,,990.336,255.455,246.471,,990.336,16.904,0.173115,17.3115,18.4307
992.54,39.981,42.4319,,992.54,261.962,253.353,,992.54,15.2621,0.167482,16.7482,17.9233
994.745,39.507,40.9916,,994.745,274.288,260.722,,994.745,14.4035,0.157223,15.7223,17.3309
996.951,40.851,40.9363,,996.951,286.612,270.187,,996.951,14.2531,0.151511,15.1511,16.7338
999.157,40.832,41.764,,999.157,293.481,280.193,,999.157,13.913,0.149054,14.9054,16.1881
1001.365,43.811,42.1465,,1001.365,301.168,289.222,,1001.365,14.547,0.145723,14.5723,15.6503
1003.573,45.791,42.592,,1003.573,303.763,296.508,,1003.573,15.0746,0.143646,14.3646,15.1327
1005.783,48.497,43.7303,,1005.783,310.267,301.218,,1005.783,15.6307,0.145178,14.5178,14.7948
1007.993,48.748,45.9008,,1007.993,329.769,311.349,,1007.993,14.7825,0.147425,14.7425,14.6635
1010.205,50.181,47.5625,,1010.205,350.362,326.477,,1010.205,14.3226,0.145684,14.5684,14.586
1012.417,46.523,47.9102,,1012.417,374.227,345.141,,1012.417,12.4318,0.138813,13.8813,14.4781
1014.631,53.773,48.8935,,1014.631,403,368.867,,1014.631,13.3432,0.13255,13.255,14.2747
1016.845,53.75,52.1631,,1016.845,427.136,393.454,,1016.845,12.5838,0.132577,13.2577,14.0523
1019.06,51.999,52.359,,1019.06,460.817,418.868,,1019.06,11.2841,0.125001,12.5001,13.6899
1021.277,53.976,52.7001,,1021.277,488.77,448.532,,1021.277,11.0432,0.117495,11.7495,13.1712
1023.494,51.497,54.0498,,1023.494,508.176,474.235,,1023.494,10.1337,0.113973,11.3973,12.633
1025.712,50.564,53.7146,,1025.712,529.673,497.215,,1025.712,9.54627,0.108031,10.8031,12.1467
1027.931,52.629,53.4948,,1027.931,553.986,519.436,,1027.931,9.50006,0.102986,10.2986,11.6011
1030.151,55.059,54.1193,,1030.151,563.39,539.993,,1030.151,9.7728,0.100222,10.0222,11.0471
1032.372,56.851,54.8177,,1032.372,575.884,555.399,,1032.372,9.87195,0.0986997,9.86997,10.6246
1034.594,56.734,55.695,,1034.594,581.558,567.714,,1034.594,9.75552,0.098104,9.8104,10.2888
1036.817,59.071,57.2257,,1036.817,588.232,576.536,,1036.817,10.0421,0.0992579,9.92579,10.0509
1039.041,58.68,58.4526,,1039.041,588.632,583.337,,1039.041,9.96888,0.100204,10.0204,9.94996
1041.266,59.288,58.9319,,1041.266,590.031,586.847,,1041.266,10.0483,0.100421,10.0421,9.928
1043.492,64.714,59.9833,,1043.492,586.793,588.034,,1043.492,11.0284,0.102006,10.2006,9.95856
1045.718,66.504,62.7868,,1045.718,596.644,589.947,,1045.718,11.1463,0.106428,10.6428,10.0837
1047.946,69.929,64.9455,,1047.946,593.313,592.824,,1047.946,11.7862,0.109553,10.9553,10.2775
1050.175,71.354,67.814,,1050.175,601.617,594.302,,1050.175,11.8604,0.114107,11.4107,10.5302
1052.405,72.96,69.5598,,1052.405,602.011,599.239,,1052.405,12.1194,0.11608,11.608,10.8183
1054.635,82.202,73.04,,1054.635,596.403,597.902,,1054.635,13.783,0.122161,12.2161,11.1816
1056.867,88.352,79.3102,,1056.867,592.068,595.968,,1056.867,14.9226,0.133078,13.3078,11.6698
1059.099,94.138,85.7001,,1059.099,580.549,590.142,,1059.099,16.2153,0.145219,14.5219,12.3084
1061.333,97.56,90.1604,,1061.333,581.393,583.967,,1061.333,16.7804,0.154393,15.4393,13.0684
1063.567,110.527,97.0894,,1063.567,572.872,579.42,,1063.567,19.2935,0.167563,16.7563,13.9818
1065.802,115.584,105.675,,1065.802,567.258,573.583,,1065.802,20.3759,0.184236,18.4236,15.1487
1068.039,129.731,113.069,,1068.039,565.462,569.197,,1068.039,22.9425,0.198646,19.8646,16.4258
1070.276,148.969,127.287,,1070.276,558.937,565.166,,1070.276,26.6522,0.225221,22.5221,17.9192
1072.514,152.115,139.441,,1072.514,559.139,561.587,,1072.514,27.2052,0.248299,24.8299,19.6832
1074.753,163.078,147.798,,1074.753,550.884,558.469,,1074.753,29.603,0.264649,26.4649,21.5851
1076.993,175.314,158.067,,1076.993,535.083,550.983,,1076.993,32.7639,0.286882,28.6882,23.579
1079.234,183.64,168.865,,1079.234,534.007,542.727,,1079.234,34.3891,0.311142,31.1142,25.7492
1081.476,196.329,179.258,,1081.476,529.385,537.937,,1081.476,37.0862,0.333232,33.3232,27.9667
1083.719,219.744,193.398,,1083.719,527.215,532.68,,1083.719,41.6801,0.363066,36.3066,30.1991
1085.963,229.704,209.479,,1085.963,520.772,529.228,,1085.963,44.1084,0.395819,39.5819,32.6984
1088.208,243.209,224.183,,1088.208,513.782,522.837,,1088.208,47.337,0.428782,42.8782,35.4527
1090.454,260.986,239.068,,1090.454,508.245,517.41,,1090.454,51.3504,0.462049,46.2049,38.3742
1092.772,277.853,254.568,,1092.772,503.615,512.319,,1092.772,55.1717,0.496893,49.6893,41.5239
1094.985,288.901,268.754,,1094.985,503.075,508.097,,1094.985,57.427,0.528941,52.8941,44.832
1097.197,302.675,282.601,,1097.197,501.351,505.686,,1097.197,60.3719,0.558846,55.8846,48.0962
1099.409,308.722,295.04,,1099.409,492.535,500.414,,1099.409,62.6802,0.589593,58.9593,51.3315
1101.622,316.859,304.973,,1101.622,486.626,494.006,,1101.622,65.1135,0.617346,61.7346,54.4878
1103.834,320.176,312.048,,1103.834,478.08,487.981,,1103.834,66.9712,0.639466,63.9466,57.455
1106.047,330.857,319.063,,1106.047,472.804,481.235,,1106.047,69.9776,0.663009,66.3009,60.1898
1108.259,339.082,328.404,,1108.259,469.89,475.543,,1108.259,72.162,0.690588,69.0588,62.8553
1110.472,341.215,335.512,,1110.472,464.157,470.658,,1110.472,73.5128,0.712857,71.2857,65.3876
1112.684,342.802,338.574,,1112.684,458.24,466.471,,1112.684,74.8084,0.72582,72.582,67.6709
1114.897,343.661,341.307,,1114.897,439.867,458.028,,1114.897,78.1284,0.745166,74.5166,69.7919
1117.109,338.7,341.015,,1117.109,433.31,445.914,,1117.109,78.1657,0.764755,76.4755,71.8902
1119.321,339.103,339.297,,1119.321,426.297,436.608,,1119.321,79.5462,0.777121,77.7121,73.747
1121.534,339.595,338.731,,1121.534,422.645,429.973,,1121.534,80.3499,0.787796,78.7796,75.3499
1123.746,337.632,338.94,,1123.746,415.719,425.571,,1123.746,81.2164,0.796436,79.6436,76.7819
1125.959,326.123,335.303,,1125.959,403.973,416.838,,1125.959,80.7289,0.804396,80.4396,78.0918
1128.171,318.704,328.643,,1128.171,398.589,409.039,,1128.171,79.9581,0.803451,80.3451,79.0323
1130.384,316.374,322.479,,1130.384,395.84,403.913,,1130.384,79.9247,0.798386,79.8386,79.6144
1132.596,315.226,319.318,,1132.596,378.543,395.556,,1132.596,83.2735,0.807263,80.7263,80.0335
1134.809,307.986,316.125,,1134.809,374.335,384.54,,1134.809,82.2755,0.822087,82.2087,80.5402
1137.021,305.29,311.308,,1137.021,371.398,379.121,,1137.021,82.2002,0.821131,82.1131,80.9378
1139.233,303.684,308.521,,1139.233,349.913,370.158,,1139.233,86.7884,0.833485,83.3485,81.3769
1141.446,302.168,305.867,,1141.446,346.154,357.45,,1141.446,87.2929,0.85569,85.569,82.29
1143.658,293.651,301.476,,1143.658,340.03,350.921,,1143.658,86.3603,0.859098,85.9098,83.3987
1145.871,279.588,292.323,,1145.871,331.449,342.534,,1145.871,84.3532,0.853412,85.3412,84.1829
1148.083,277.16,284.285,,1148.083,325.32,335.189,,1148.083,85.1961,0.848135,84.8135,84.6984
1150.296,272.277,278.695,,1150.296,310.099,325.84,,1150.296,87.8032,0.855313,85.5313,85.238
1152.508,264.665,273.828,,1152.508,304.513,314.779,,1152.508,86.9142,0.869903,86.9903,85.6586
1154.721,252.508,265.212,,1154.721,298.015,308.209,,1154.721,84.73,0.860496,86.0496,85.7723
1156.933,253.349,258.326,,1156.933,288.97,300.036,,1156.933,87.6731,0.860981,86.0981,85.8014
1159.145,248.098,254.997,,1159.145,283.56,294.558,,1159.145,87.494,0.865693,86.5693,86.0821
1161.358,238.574,249.963,,1161.358,274.875,287.645,,1161.358,86.7936,0.868999,86.8999,86.4286
1163.57,232.049,242.642,,1163.57,266.734,280.18,,1163.57,86.9964,0.866024,86.6024,86.5279
1165.783,225.886,236.367,,1165.783,261.591,272.169,,1165.783,86.3508,0.868456,86.8456,86.5377
1167.995,220.178,229.339,,1167.995,257.901,265.682,,1167.995,85.3731,0.86321,86.321,86.6681
1170.208,214.923,222.925,,1170.208,253.846,260.44,,1170.208,84.6667,0.855955,85.5955,86.5553
1172.42,207.94,216.772,,1172.42,242.062,253.921,,1172.42,85.9036,0.853699,85.3699,86.285
1174.633,200.229,210.593,,1174.633,239.549,247.296,,1174.633,83.5858,0.851582,85.1582,85.9907
1176.845,194.972,203.837,,1176.845,234.216,242.148,,1176.845,83.2445,0.841788,84.1788,85.551
1179.057,195.441,199.621,,1179.057,225.701,236.343,,1179.057,86.5929,0.844626,84.4626,85.0806
1181.27,187.91,195.842,,1181.27,220.366,229.356,,1181.27,85.2718,0.85388,85.388,84.9263
1183.482,181.015,189.805,,1183.482,216.211,224.618,,1183.482,83.7215,0.845012,84.5012,84.8115
1185.695,182.937,185.988,,1185.695,208.601,218.908,,1185.695,87.6971,0.849619,84.9619,84.6903
1187.907,173.131,182.496,,1187.907,205.99,213.488,,1187.907,84.0483,0.854832,85.4832,84.8378
1190.12,162.78,174.82,,1190.12,198.65,208.843,,1190.12,81.9431,0.83709,83.709,84.8828
1192.332,160.337,168.822,,1192.332,194.219,202.265,,1192.332,82.5547,0.834657,83.4657,84.606
1194.545,151.894,162.597,,1194.545,193.06,197.549,,1194.545,78.6771,0.823069,82.3069,84.2075
1196.757,139.269,153.538,,1196.757,191.265,194.712,,1196.757,72.8147,0.788541,78.8541,83.3441
1198.969,134.371,144.469,,1198.969,187.559,192.304,,1198.969,71.642,0.751256,75.1256,81.5987
1201.182,135.927,140.323,,1201.182,188.127,189.623,,1201.182,72.2528,0.740011,74.0011,79.5724
1203.394,131.847,137.673,,1203.394,189.694,189.042,,1203.394,69.5051,0.728265,72.8265,77.6199
1205.607,122.949,132.953,,1205.607,193.898,190.265,,1205.607,63.4091,0.69878,69.878,75.2463
1207.819,115.142,125.981,,1207.819,189.193,191.079,,1207.819,60.8595,0.659317,65.9317,72.6074
1210.032,113.335,119.086,,1210.032,182.125,187.297,,1210.032,62.2292,0.635811,63.5811,70.1338
1212.244,112.529,115.356,,1212.244,182.512,184.81,,1212.244,61.6557,0.624189,62.4189,67.9234
1214.456,111.904,114.163,,1214.456,171.173,181.129,,1214.456,65.3748,0.630285,63.0285,65.8711
1216.669,102.735,110.618,,1216.669,158.562,173.626,,1216.669,64.7917,0.637106,63.7106,64.3699
1218.881,101.203,106.585,,1218.881,149.498,164.236,,1218.881,67.6952,0.648974,64.8974,63.6695
1221.094,93.672,101.969,,1221.094,137.617,153.905,,1221.094,68.0672,0.662547,66.2547,63.9036
1223.306,91.506,96.7546,,1223.306,130.102,143.31,,1223.306,70.334,0.675142,67.5142,64.6526
1225.519,86.704,93.1126,,1225.519,112.498,132.02,,1225.519,77.0716,0.705289,70.5289,65.9789
1227.731,77.539,87.4701,,1227.731,103.806,118.791,,1227.731,74.6961,0.736334,73.6334,67.7555
1229.944,69.74,80.6711,,1229.944,97.388,110.104,,1229.944,71.6105,0.732681,73.2681,69.5551
1232.156,66.487,74.4427,,1232.156,86.883,100.672,,1232.156,76.5248,0.739455,73.9455,71.1154
1234.368,72.054,72.8412,,1234.368,89.199,93.3588,,1234.368,80.7789,0.780228,78.0228,73.0008
1236.581,63.259,71.6765,,1236.581,82.519,88.89,,1236.581,76.6599,0.806351,80.6351,75.1632
1238.793,58.466,65.8113,,1238.793,82.296,84.0546,,1238.793,71.0436,0.782959,78.2959,76.4542
1241.006,61.675,64.1138,,1241.006,74.533,80.6064,,1241.006,82.7486,0.795393,79.5393,77.3533
1242.586,62.486,63.2035,,1242.586,64.806,76.3368,,1242.586,96.4201,0.827956,82.7956,