File: public_html/data/backup/plexiglas_5C50.csv
wavelength_nm,intensity,intensity_smoothed,,wavelength_nm2,intensity_i0,intensity_i0_smoothed,,wavelength_nm3,,transmission,transmission_perc,transmission_perc_smoothed
173.232,21.719,#N/A,,173.232,26.786,#N/A,,173.232,81.0834,#N/A,#N/A,#N/A
175.084,31.522,24.2571,,175.084,38.604,29.6984,,175.084,81.6548,0.816782,81.6782,#N/A
176.935,36.249,29.8028,,176.935,36.058,34.7287,,176.935,100.53,0.858162,85.8162,#N/A
178.787,38.158,33.8459,,178.787,36.057,35.7311,,178.787,105.827,0.947238,94.7238,#N/A
180.639,30.521,34.1872,,180.639,33.693,36.2498,,180.639,90.5856,0.943102,94.3102,#N/A
182.491,32.066,31.5171,,182.491,35.146,34.8517,,182.491,91.2366,0.90432,90.432,#N/A
184.342,37.338,33.0368,,184.342,38.873,36.5629,,184.342,96.0512,0.90356,90.356,90.7491
186.194,28.883,33.6263,,186.194,37.236,37.7408,,186.194,77.5674,0.89098,89.098,92.3016
188.046,25.519,29.8564,,188.046,41.599,37.9195,,188.046,61.3452,0.787364,78.7364,90.7331
189.897,29.246,29.3196,,189.897,38.507,39.5136,,189.897,75.9498,0.742013,74.2013,86.555
191.749,31.518,29.9928,,191.749,31.688,37.3555,,191.749,99.4635,0.802903,80.2903,83.6836
193.601,32.972,32.0066,,193.601,33.505,35.5764,,193.601,98.4092,0.899657,89.9657,82.9668
195.453,32.972,32.6109,,195.453,33.504,35.1224,,195.453,98.4121,0.928494,92.8494,83.1564
197.304,31.244,32.6074,,197.304,32.14,34.8236,,197.304,97.2122,0.936358,93.6358,84.8074
199.156,24.517,29.3717,,199.156,31.503,33.8949,,199.156,77.8243,0.866553,86.6553,87.5081
201.008,31.425,28.7046,,201.008,34.684,33.8897,,201.008,90.6037,0.847,84.7,89.201
202.86,29.061,30.0084,,202.86,34.683,34.1697,,202.86,83.7903,0.878219,87.8219,89.662
204.711,34.515,30.6339,,204.711,35.227,35.1271,,204.711,97.9788,0.872087,87.2087,88.8401
206.563,30.788,32.0659,,206.563,32.136,34.3423,,206.563,95.8053,0.933716,93.3716,88.5451
208.415,27.333,30.1915,,208.415,36.68,34.8728,,208.415,74.5174,0.865758,86.5758,88.0739
210.267,30.696,30.2293,,210.267,34.316,35.8565,,210.267,89.451,0.843062,84.3062,87.7797
212.118,29.15,29.5847,,212.118,32.679,35.2305,,212.118,89.201,0.839748,83.9748,87.3538
213.97,28.149,29.373,,213.97,29.859,33.8215,,213.97,94.2731,0.868471,86.8471,87.0741
215.822,27.785,28.2608,,215.822,29.859,31.0561,,215.822,93.054,0.909994,90.9994,86.9484
217.673,28.33,27.811,,217.673,35.858,33.0981,,217.673,79.0061,0.84026,84.026,86.033
219.525,26.512,27.3138,,219.525,29.402,33.5853,,219.525,90.1707,0.813267,81.3267,85.4253
221.377,26.056,26.5963,,221.377,33.31,32.2544,,221.377,78.2228,0.824579,82.4579,85.1489
223.229,31.238,26.933,,223.229,37.764,34.2879,,223.229,82.719,0.785495,78.5495,84.1056
225.08,30.874,29.2206,,225.08,38.763,35.4599,,225.08,79.6481,0.824046,82.4046,82.6561
226.932,28.237,28.8729,,226.932,38.217,37.2011,,226.932,73.886,0.776131,77.6131,80.8157
228.784,29.6,28.7685,,228.784,32.761,36.0345,,228.784,90.3513,0.798359,79.8359,80.1468
230.636,30.69,29.9577,,230.636,29.397,34.1797,,230.636,104.398,0.876476,87.6476,80.6009
232.487,27.054,29.359,,232.487,33.214,33.1807,,232.487,81.4536,0.88482,88.482,82.2241
234.339,28.78,28.5013,,234.339,34.304,34.4358,,234.339,83.8969,0.827666,82.7666,83.0026
236.191,32.598,29.2343,,236.191,27.485,31.4748,,236.191,118.603,0.928815,92.8815,84.5234
238.043,43.325,34.1716,,238.043,35.848,30.3274,,238.043,120.858,1.12675,112.675,90.1752
239.894,46.597,39.5171,,239.894,44.574,35.5211,,239.894,104.539,1.1125,111.25,95.7566
241.746,53.415,44.7106,,241.746,53.482,42.8589,,241.746,99.8747,1.0432,104.32,99.0178
243.598,55.232,49.6273,,243.598,62.208,50.6793,,243.598,88.786,0.979241,97.9241,101.728
245.449,52.686,51.9037,,245.449,62.662,56.7962,,245.449,84.0797,0.913859,91.3859,103.255
247.301,58.959,53.2542,,247.301,66.025,60.0306,,247.301,89.298,0.887117,88.7117,100.909
249.153,67.413,58.838,,249.153,75.569,66.0606,,249.153,89.2072,0.890666,89.0666,96.3652
251.005,69.412,62.7172,,251.005,79.023,71.749,,251.005,87.8377,0.87412,87.412,92.5303
252.856,72.23,67.4432,,252.856,77.567,74.9429,,252.856,93.1195,0.899928,89.9928,90.1098
254.681,69.593,68.5973,,254.681,79.021,76.3829,,254.681,88.069,0.898071,89.8071,89.2131
256.513,75.774,70.5855,,256.513,83.292,79.0528,,256.513,90.9739,0.892891,89.2891,89.1027
258.347,76.774,73.6642,,258.347,84.019,82.1099,,258.347,91.377,0.897142,89.7142,89.2255
260.181,76.955,75.4597,,260.181,84.472,83.6374,,260.181,91.1012,0.902225,90.2225,89.5329
262.017,79.773,76.9124,,262.017,81.108,83.7727,,262.017,98.354,0.918107,91.8107,90.068
263.853,80.681,78.8793,,263.853,85.197,83.7059,,263.853,94.6993,0.942338,94.2338,90.7039
265.691,83.499,80.5487,,265.691,83.469,84.7439,,265.691,100.036,0.950496,95.0496,91.6586
267.53,81.316,81.0197,,267.53,78.923,83.0577,,267.53,103.032,0.975463,97.5463,93.0603
269.369,79.588,80.6764,,269.369,82.013,82.1681,,269.369,97.0432,0.981846,98.1846,94.6582
271.21,78.861,80.4905,,271.21,81.648,82.5729,,271.21,96.5866,0.974782,97.4782,95.9931
273.052,73.133,78.4825,,273.052,78.374,81.0571,,273.052,93.3128,0.968237,96.8237,96.7303
274.895,73.95,74.5229,,274.895,79.009,79.5774,,274.895,93.5969,0.936484,93.6484,96.7906
276.739,75.223,74.5566,,276.739,83.554,81.013,,276.739,90.0292,0.920304,92.0304,96.0791
278.584,72.222,73.0791,,278.584,79.462,81.556,,278.584,90.8887,0.89606,89.606,94.5545
280.431,73.04,72.6063,,280.431,84.461,81.9941,,280.431,86.4778,0.885506,88.5506,92.8886
282.278,72.039,72.0332,,282.278,87.55,84.3235,,282.278,82.2833,0.854248,85.4248,90.8793
284.126,75.675,73.4821,,284.126,87.549,85.4577,,284.126,86.4373,0.859865,85.9865,89.0651
285.976,78.765,75.5116,,285.976,89.821,87.2231,,285.976,87.6911,0.86573,86.573,87.8446
287.826,78.037,78.0948,,287.826,86.82,87.5194,,287.826,89.8837,0.892314,89.2314,87.3404
289.678,73.764,77.24,,289.678,88.001,87.5632,,289.678,83.8218,0.882105,88.2105,87.1829
291.531,76.491,76.0364,,291.531,82.999,86.9141,,291.531,92.1589,0.874845,87.4845,87.082
293.385,78.399,77.5562,,293.385,86.544,86.0818,,293.385,90.5886,0.90096,90.096,87.849
295.239,72.126,75.978,,295.239,83.452,86.6223,,295.239,86.4281,0.877118,87.7118,88.2755
297.095,75.307,74.0176,,297.095,80.632,83.1922,,297.095,93.3959,0.889718,88.9718,88.4638
298.952,79.761,76.6355,,298.952,84.904,83.8708,,298.952,93.9426,0.913733,91.3733,88.7906
300.81,70.124,76.6147,,300.81,81.721,82.882,,300.81,85.809,0.924383,92.4383,89.8301
302.669,77.487,75.0162,,302.669,90.811,84.7768,,302.669,85.3278,0.884868,88.4868,89.9961
304.53,82.577,78.6362,,304.53,88.537,86.7993,,304.53,93.2684,0.905954,90.5954,90.0798
306.391,78.031,80.0583,,306.391,85.536,86.9114,,306.391,91.2259,0.921149,92.1149,90.8203
308.253,79.849,79.9582,,308.253,82.171,84.5328,,308.253,97.1742,0.945884,94.5884,91.4701
310.117,81.121,79.6884,,310.117,84.624,82.3974,,310.117,95.8605,0.967123,96.7123,92.165
311.981,75.484,78.7753,,311.981,90.623,85.0406,,311.981,83.2945,0.926326,92.6326,92.8372
313.847,73.21,75.8663,,313.847,85.258,86.5371,,313.847,85.8688,0.876691,87.6691,92.8341
315.713,75.664,76.2081,,315.713,86.621,85.0832,,315.713,87.3506,0.895689,89.5689,92.3232
317.581,78.391,76.8494,,317.581,89.074,85.5077,,317.581,88.0066,0.898743,89.8743,91.7079
319.45,75.208,75.931,,319.45,86.709,86.1281,,319.45,86.7361,0.881605,88.1605,90.4163
321.319,76.662,75.4959,,321.319,85.071,85.8514,,321.319,90.1153,0.879379,87.9379,88.8653
323.19,78.025,77.0487,,323.19,89.525,86.5611,,323.19,87.1544,0.890108,89.0108,88.6078
325.062,73.843,75.6799,,325.062,82.524,87.1706,,325.062,89.4806,0.868182,86.8182,88.4131
326.935,80.933,76.9266,,326.935,88.25,86.2735,,326.935,91.7088,0.89166,89.166,88.1829
328.809,83.296,80.0819,,328.809,91.521,87.842,,328.809,91.013,0.911658,91.1658,88.4234
330.685,80.023,80.7732,,330.685,97.156,91.0015,,330.685,82.3655,0.887603,88.7603,88.8613
332.561,74.386,78.297,,332.561,89.337,92.2346,,332.561,83.2645,0.848889,84.8889,88.3272
334.438,82.021,78.7757,,334.438,91.608,90.0201,,334.438,89.5348,0.875091,87.5091,88.0542
336.316,79.475,80.0436,,336.316,91.879,91.5528,,336.316,86.4996,0.874289,87.4289,88.0873
338.196,82.929,80.5046,,338.196,87.424,90.232,,338.196,94.8584,0.892195,89.2195,87.7514
340.076,85.383,82.8179,,340.076,90.422,89.0709,,340.076,94.4272,0.929798,92.9798,88.0291
341.958,81.2,83.3476,,341.958,88.694,88.8436,,341.958,91.5507,0.938138,93.8138,89.2762
343.84,79.109,81.8422,,343.84,88.42,88.2726,,343.84,89.4696,0.927153,92.7153,90.6749
345.724,78.926,81.5894,,345.724,94.418,90.3649,,345.724,83.5921,0.902888,90.2888,91.3242
347.609,78.57,78.997,,347.609,94.789,93.2687,,347.609,82.8894,0.846983,84.6983,91.0779
349.495,86.287,80.6721,,349.495,91.155,93.6846,,349.495,94.6596,0.861104,86.1104,90.0297
351.382,85.16,83.3594,,351.382,90.863,92.7503,,351.382,93.7235,0.89875,89.875,89.2359
353.269,82.758,82.3656,,353.269,93.89,92.5566,,353.269,88.1436,0.889894,88.9894,88.5481
355.158,86.802,83.5966,,355.158,91.527,92.7964,,355.158,94.8376,0.90086,90.086,88.0861
357.048,82.014,84.2832,,357.048,92.684,93.1377,,357.048,88.4878,0.904931,90.4931,88.675
358.94,83.869,83.5319,,358.94,95.218,94.2336,,358.94,88.081,0.886435,88.6435,89.4661
360.832,95.478,86.0685,,360.832,96.431,95.4034,,360.832,99.0117,0.902153,90.2153,89.724
362.725,98.949,92.5115,,362.725,93.62,95.0673,,362.725,105.692,0.973115,97.3115,90.7199
364.619,88.39,93.3032,,364.619,105.359,96.5883,,364.619,83.8941,0.965989,96.5989,92.3573
366.515,85.254,88.3643,,366.515,104.282,101.133,,366.515,81.7533,0.873741,87.3741,92.16
368.411,93.007,88.7753,,368.411,101.47,101.551,,368.411,91.6596,0.874193,87.4193,91.6105
370.308,96.431,92.4679,,370.308,97.975,100.897,,370.308,98.4241,0.916458,91.6458,91.8773
372.207,96.446,94.6634,,372.207,105.848,101.347,,372.207,91.1175,0.934052,93.4052,91.8999
374.107,94.603,95.0673,,374.107,105.608,103.386,,374.107,89.5794,0.919539,91.9539,90.7434
376.007,94.709,95.117,,376.007,106.189,104.33,,376.007,89.1891,0.911691,91.1691,90.5572
377.909,98.146,95.7964,,377.909,105.226,104.795,,377.909,93.2716,0.91413,91.413,91.3954
379.812,98.359,97.6518,,379.812,111.582,106.882,,379.812,88.1495,0.913638,91.3638,91.8689
381.716,99.784,99.1791,,381.716,114.291,109.895,,381.716,87.307,0.902493,90.2493,91.3967
383.62,104.853,101.265,,383.62,112.097,112.163,,383.62,93.5377,0.90284,90.284,90.9203
385.526,105.584,103.507,,385.526,116.28,112.79,,385.526,90.8015,0.917701,91.7701,90.8772
387.433,108.291,105.461,,387.433,115.424,114.342,,387.433,93.8202,0.922337,92.2337,91.0956
389.341,115.855,108.365,,389.341,119.767,115.64,,389.341,96.7337,0.93709,93.709,91.3981
391.25,114.14,111.724,,391.25,130.241,120.838,,391.25,87.6375,0.92458,92.458,91.8792
393.161,120.34,113.285,,393.161,141.583,128.167,,393.161,84.9961,0.883885,88.3885,91.823
395.072,130.956,120.229,,395.072,162.278,140.311,,395.072,80.6986,0.856873,85.6873,90.9896
396.984,143.351,129.473,,396.984,184.699,157.71,,396.984,77.6133,0.820958,82.0958,89.3181
398.897,164.347,141.357,,398.897,227.497,182.636,,398.897,72.2414,0.773981,77.3981,86.6937
400.812,213.166,163.993,,400.812,289.932,221.57,,400.812,73.5228,0.740143,74.0143,83.0793
402.727,293.655,208.469,,402.727,375.612,277.644,,402.727,78.1804,0.750851,75.0851,80.0076
404.644,426.91,283.73,,404.644,524.35,364.121,,404.644,81.417,0.779217,77.9217,78.071
406.561,662.016,414.651,,406.561,752.631,501.419,,406.561,87.9602,0.826954,82.6954,77.5391
408.48,1018.33,628.633,,408.48,1090.276,712.968,,408.48,93.4011,0.881713,88.1713,78.7501
410.4,1572.596,963.55,,410.4,1576.714,1024.69,,410.4,99.7388,0.940335,94.0335,81.9152
412.32,2367.812,1471.75,,412.32,2292.428,1484.04,,412.32,103.288,0.991715,99.1715,86.3727
414.242,3470.432,2204.09,,414.242,3303.056,2146.55,,414.242,105.067,1.02681,102.681,91.1921
416.165,5035.099,3240.71,,416.165,4719.128,3089.8,,416.165,106.696,1.04884,104.884,95.8172
418.089,7141.842,4689.07,,418.089,6623.23,4399.73,,418.089,107.83,1.06576,106.576,99.8054
420.014,9867.85,6631.83,,420.014,9137.17,6168.31,,420.014,107.997,1.07515,107.515,102.962
421.939,13355.561,9174.21,,421.939,12355.714,8501.15,,421.939,108.092,1.07917,107.917,105.132
423.866,17589.431,12404,,423.866,16253.351,11472.2,,423.866,108.22,1.08122,108.122,106.505
425.795,22613.634,16355.4,,425.795,20920.267,15116.3,,425.795,108.094,1.08197,108.197,107.36
427.724,28402.436,21060.5,,427.724,26342.847,19491.6,,427.724,107.818,1.08049,108.049,107.825
429.654,34914.013,26514.6,,429.654,32472.644,24593,,429.654,107.518,1.07814,107.814,107.985
431.585,42281.697,32734.1,,431.585,39466.603,30450.9,,431.585,107.133,1.07498,107.498,107.963
433.517,56129.005,41172.3,,433.517,47212.176,37095.6,,433.517,118.887,1.1099,110.99,108.224
435.451,64000,51666.2,,435.451,57567.013,44916.7,,435.451,111.175,1.15027,115.027,109.407
437.385,64000,58100.8,,437.385,64000,53518.3,,437.385,100,1.08562,108.562,109.9
439.32,64000,61178.4,,439.32,64000,58986.7,,439.32,100,1.03716,103.716,109.307
441.257,64000,62650.4,,441.257,64000,61602.1,,441.257,100,1.01702,101.702,108.264
443.194,63776.499,63326.5,,443.194,63787.125,62827.3,,443.194,99.9833,1.00795,100.795,106.896
445.133,62919.325,63369.6,,445.133,62883.234,63135.6,,445.133,100.057,1.00371,100.371,104.436
447.072,61565.905,62823,,447.072,61142.14,62615.5,,447.072,100.693,1.00331,100.331,102.1
449.013,58582.546,61539.8,,449.013,56984.331,60958,,449.013,102.805,1.00954,100.954,101.078
450.955,51668.402,58422.9,,450.955,48943.691,56974.3,,450.955,105.567,1.02543,102.543,100.95
452.897,42599.874,52580,,452.897,40056.044,50478,,452.897,106.351,1.04164,104.164,101.419
454.841,34878.651,45325.8,,454.841,32726.301,43097.4,,454.841,106.577,1.0517,105.17,102.238
456.786,28901.073,38284.4,,456.786,27131.96,36193.8,,456.786,106.52,1.05776,105.776,103.243
458.732,24295.835,32164.2,,458.732,22827.2,30323.6,,458.732,106.434,1.0607,106.07,104.279
460.679,20585.292,27088.2,,460.679,19324.818,25488.8,,460.679,106.523,1.06275,106.275,105.157
462.627,17433.399,22874.5,,462.627,16380.89,21505.9,,462.627,106.425,1.06364,106.364,105.736
464.576,14699.132,19320.9,,464.576,13857.231,18175.3,,464.576,106.076,1.06303,106.303,106.057
466.526,12441.396,16313.2,,466.526,11729.578,15364,,466.526,106.069,1.06178,106.178,106.199
468.477,10586.37,13801.3,,468.477,9995.534,13006.5,,468.477,105.911,1.06111,106.111,106.239
470.429,9162.301,11741.1,,470.429,8656.172,11077,,470.429,105.847,1.05995,105.995,106.215
472.382,8066.766,10101.7,,472.382,7635.598,9541.11,,472.382,105.647,1.05875,105.875,106.138
474.336,7217.474,8811.36,,474.336,6854.628,8338.67,,474.336,105.293,1.05669,105.669,106.022
476.292,6586.474,7812,,476.292,6260.377,7405.36,,476.292,105.209,1.05491,105.491,105.887
478.248,6098.797,7041.87,,478.248,5803.889,6686.65,,478.248,105.081,1.05312,105.312,105.739
480.205,5739.284,6451.36,,480.205,5461.718,6135.55,,480.205,105.082,1.05147,105.147,105.575
482.164,5490.972,6009.87,,482.164,5237.861,5720.76,,482.164,104.832,1.05054,105.054,105.411
484.123,5393.713,5706.81,,484.123,5160.507,5444.05,,484.123,104.519,1.04827,104.827,105.239
486.083,5469.762,5554.97,,486.083,5228.466,5308.26,,486.083,104.615,1.04648,104.648,105.07
488.045,5720.894,5567.67,,488.045,5480.019,5324.94,,488.045,104.396,1.04558,104.558,104.911
490.007,6141.64,5747.7,,490.007,5891.004,5504.92,,490.007,104.255,1.0441,104.41,104.763
491.971,6719.463,6091.83,,491.971,6468.471,5846.97,,491.971,103.88,1.04188,104.188,104.602
493.936,7444.365,6596.14,,493.936,7190.779,6348.99,,493.936,103.527,1.03893,103.893,104.417
495.901,8314.914,7255.17,,495.901,8029.417,6994.04,,495.901,103.556,1.03734,103.734,104.234
497.868,9304.429,8057.16,,497.868,9011.373,7778.88,,497.868,103.252,1.03577,103.577,104.047
499.836,10404.477,8983.16,,499.836,10104.749,8696.37,,499.836,102.966,1.03298,103.298,103.835
501.804,11580.428,10024.1,,501.804,11270.159,9726.87,,501.804,102.753,1.03056,103.056,103.607
503.774,12783.491,11141,,503.774,12464.423,10834.2,,503.774,102.56,1.02831,102.831,103.384
505.745,14016.605,12312.1,,505.745,13673.219,11989.4,,505.745,102.511,1.02692,102.692,103.179
507.717,15185.63,13494.4,,507.717,14872.93,13172.9,,507.717,102.102,1.0244,102.44,102.96
509.69,16386.084,14679.5,,509.69,16056.998,14363.8,,509.69,102.049,1.02198,102.198,102.733
511.664,17535.211,15865.3,,511.664,17217.394,15546.2,,511.664,101.846,1.02053,102.053,102.526
513.639,18570.214,17000.6,,513.639,18283.309,16693.9,,513.639,101.569,1.01837,101.837,102.328
515.615,19546.785,18071.5,,515.615,19258.438,17775.9,,515.615,101.497,1.01663,101.663,102.13
517.592,20390.853,19069.8,,517.592,20128.144,18776.6,,517.592,101.305,1.01562,101.562,101.941
519.57,21086.017,19943.5,,519.57,20880.749,19677.7,,519.57,100.983,1.01351,101.351,101.771
521.549,21737.364,20711.6,,521.549,21567.103,20481.6,,521.549,100.789,1.01123,101.123,101.589
523.529,22309.154,21398.6,,523.529,22195.328,21213.8,,523.529,100.513,1.00871,100.871,101.396
525.51,22774.672,21999.1,,525.51,22691.129,21857.8,,525.51,100.368,1.00646,100.646,101.197
527.493,23099.906,22496.5,,527.493,23058.875,22393.1,,527.493,100.178,1.00462,100.462,100.987
529.476,23253.466,22856,,529.476,23304.066,22803.7,,529.476,99.7829,1.00229,100.229,100.764
531.46,23342.672,23089.2,,531.46,23470.938,23114.7,,531.46,99.4535,0.9989,99.89,100.526
533.446,23363.635,23232.2,,533.446,23511.018,23315.5,,533.446,99.3731,0.996429,99.6429,100.277
535.432,23304.854,23288.9,,535.432,23522.14,23420.3,,535.432,99.0762,0.99439,99.439,100.037
537.419,23202.809,23270.8,,537.419,23550.666,23479.6,,537.419,98.5229,0.991107,99.1107,99.781
539.408,23127.113,23213.5,,539.408,23514.322,23508.5,,539.408,98.3533,0.987449,98.7449,99.4919
541.397,22975.908,23139.1,,541.397,23421.676,23487.5,,541.397,98.0968,0.985168,98.5168,99.2064
543.388,22743.618,22997.4,,543.388,23308.611,23427,,543.388,97.576,0.981662,98.1662,98.9231
545.379,22566.824,22823,,545.379,23191.606,23337.7,,545.379,97.306,0.977948,97.7948,98.6084
547.372,22341.16,22632.6,,547.372,23067.082,23233,,547.372,96.853,0.97416,97.416,98.271
549.365,22098.711,22419.8,,549.365,22873.453,23102.2,,549.365,96.6129,0.970462,97.0462,97.9315
551.36,21820.406,22183.1,,551.36,22657.524,22929.7,,551.36,96.3053,0.967442,96.7442,97.5889
553.356,21509.468,21917.4,,553.356,22458.012,22738.3,,553.356,95.7764,0.963898,96.3898,97.234
555.352,21184.645,21619,,555.352,22260.207,22544.8,,555.352,95.1682,0.958932,95.8932,96.8637
557.35,20903.055,21320.8,,557.35,21989.908,22330.1,,557.35,95.0575,0.954803,95.4803,96.475
559.349,20543.638,21009.6,,559.349,21709.137,22080.9,,559.349,94.6313,0.951483,95.1483,96.0957
561.348,20199.519,20674.3,,561.348,21446.354,21819.4,,561.348,94.1863,0.94752,94.752,95.7075
563.349,19826.644,20333.8,,563.349,21149.204,21549.7,,563.349,93.7465,0.943576,94.3576,95.3035
565.351,19418.169,19965.1,,565.351,20809.542,21256.4,,565.351,93.3138,0.939248,93.9248,94.8997
567.354,19035.705,19582.9,,567.354,20445.19,20936.2,,567.354,93.106,0.935362,93.5362,94.5112
569.358,18622.573,19197,,569.358,20090.264,20589.1,,569.358,92.6945,0.932387,93.2387,94.1298
571.363,18197.62,18790,,571.363,19686.427,20228.3,,571.363,92.4374,0.928898,92.8898,93.7524
573.368,17787.949,18376.7,,573.368,19315.428,19846,,573.368,92.0919,0.925965,92.5965,93.3913
575.375,17383.538,17969.6,,575.375,18986.807,19488.9,,575.375,91.5559,0.922043,92.2043,93.0404
577.383,16972.526,17558,,577.383,18574.161,19122.9,,577.383,91.3771,0.91817,91.817,92.6928
579.392,16547.583,17142.9,,579.392,18171.353,18727.8,,579.392,91.0641,0.915371,91.5371,92.3525
581.402,16129.962,16719.7,,581.402,17776.569,18343.2,,581.402,90.7372,0.91149,91.149,92.0073
583.413,15725.177,16310.5,,583.413,17345.495,17939.5,,583.413,90.6586,0.909193,90.9193,91.6701
585.425,15285.237,15891.2,,585.425,16927.19,17522,,585.425,90.2999,0.906932,90.6932,91.3537
587.439,14860.013,15466.3,,587.439,16478.458,17098.9,,587.439,90.1784,0.904522,90.4522,91.0681
589.453,14427.2,15039.5,,589.453,16021.565,16657.7,,589.453,90.0486,0.902852,90.2852,90.8091
591.468,13999.492,14612.1,,591.468,15595.936,16217,,591.468,89.7637,0.901033,90.1033,90.58
593.484,13579.581,14188.2,,593.484,15135.761,15776.2,,593.484,89.7185,0.899344,89.9344,90.3783
595.501,13140.313,13764.8,,595.501,14661.348,15320.5,,595.501,89.6255,0.898459,89.8459,90.1954
597.519,12691.366,13325.3,,597.519,14208.392,14858.6,,597.519,89.323,0.896803,89.6803,90.0343
599.539,12269.831,12886.4,,599.539,13742.769,14406.5,,599.539,89.2821,0.894485,89.4485,89.8697
601.559,11816.479,12451.6,,601.559,13250.632,13937.9,,601.559,89.1767,0.89336,89.336,89.7091
603.58,11361.242,12002.8,,603.58,12766.031,13456.8,,603.58,88.9959,0.89195,89.195,89.5623
605.602,10931.917,11558.1,,605.602,12339.477,12986.6,,605.602,88.593,0.890004,89.0004,89.4075
607.626,10510.677,11123.2,,607.626,11850.801,12526.1,,607.626,88.6917,0.888,88.8,89.2313
609.65,10096.957,10694.8,,609.65,11365.108,12046.9,,609.65,88.8417,0.887764,88.7764,89.0815
611.675,9717.704,10284.1,,611.675,10930.839,11580.6,,611.675,88.9017,0.888046,88.8046,88.9682
613.702,9315.377,9885.52,,613.702,10480.543,11125.3,,613.702,88.8826,0.888563,88.8563,88.885
615.729,8943.618,9492.78,,615.729,10058.86,10678.5,,615.729,88.9128,0.888965,88.8965,88.8395
617.757,8567.898,9112.03,,617.757,9626.625,10242.3,,617.757,89.0021,0.88965,88.965,88.8472
619.787,8181.988,8729.2,,619.787,9178.597,9804.92,,619.787,89.142,0.890288,89.0288,88.8908
621.817,7846.509,8357.13,,621.817,8739.57,9363.02,,621.817,89.7814,0.892567,89.2567,88.9641
623.849,7517.052,8009.42,,623.849,8378.301,8944.18,,623.849,89.7205,0.895489,89.5489,89.0857
625.881,7185.553,7669.62,,625.881,8018.036,8559.97,,625.881,89.6174,0.895987,89.5987,89.2215
627.915,6824.309,7326.74,,627.915,7612.591,8173.49,,627.915,89.645,0.896403,89.6403,89.3553
629.949,6502.235,6982.36,,629.949,7253.439,7787.88,,629.949,89.6435,0.896567,89.6567,89.4799
631.985,6215.921,6660.57,,631.985,6920.723,7425.09,,631.985,89.8161,0.897036,89.7036,89.5877
634.021,5932.509,6357.86,,634.021,6588.839,7077.77,,634.021,90.0388,0.898286,89.8286,89.6601
636.059,5639.831,6060.36,,636.059,6255.693,6735.87,,636.059,90.1552,0.899715,89.9715,89.7258
638.098,5351.294,5766.02,,638.098,5940.561,6402.08,,638.098,90.0806,0.900647,90.0647,89.8068
640.137,5076.54,5476.39,,640.137,5647.062,6082.74,,640.137,89.897,0.900317,90.0317,89.8832
642.178,4828.723,5204.12,,642.178,5351.739,5777.91,,642.178,90.2272,0.900691,90.0691,89.9553
644.219,4584.453,4946.97,,644.219,5077.458,5483.36,,644.219,90.2903,0.902178,90.2178,90.0377
646.262,4355.881,4698.32,,646.262,4811.13,5203.37,,646.262,90.5376,0.902937,90.2937,90.1085
648.306,4131.431,4462.29,,648.306,4540.322,4928.5,,648.306,90.9942,0.905406,90.5406,90.1916
650.35,3905.397,4231.56,,650.35,4299.885,4664.42,,650.35,90.8256,0.907199,90.7199,90.3084
652.396,3694.264,4008.52,,652.396,4069.196,4416.55,,652.396,90.7861,0.907615,90.7615,90.4461
654.443,3486.755,3790.73,,654.443,3845.692,4178.94,,654.443,90.6665,0.907103,90.7103,90.5594
656.49,3289.175,3581.37,,656.49,3614.831,3945.61,,656.49,90.9911,0.907683,90.7683,90.6542
658.539,3105.219,3380.8,,658.539,3395.884,3715.16,,658.539,91.4407,0.910001,91.0001,90.7559
660.589,2928.992,3192.23,,660.589,3212.113,3501.78,,660.589,91.1858,0.911602,91.1602,90.8482
662.64,2750.782,3009.77,,662.64,3008.504,3299.99,,662.64,91.4335,0.912054,91.2054,90.9312
664.691,2583.161,2832.12,,664.691,2825.846,3101.62,,664.691,91.412,0.91311,91.311,91.0313
666.744,2435.067,2664.24,,666.744,2665.607,2917.05,,666.744,91.3513,0.913335,91.3335,91.147
668.798,2300.886,2509.79,,668.798,2508.898,2745.46,,668.798,91.709,0.914162,91.4162,91.2462
670.853,2171.857,2367.31,,670.853,2354.692,2582.3,,670.853,92.2353,0.916747,91.6747,91.342
672.909,2045.292,2232.92,,672.909,2213.672,2427.68,,672.909,92.3936,0.919778,91.9778,91.4812
674.965,1920.015,2102.66,,674.965,2086.494,2283.43,,674.965,92.0211,0.920834,92.0834,91.6383
677.023,1807.503,1978.85,,677.023,1964.424,2148.24,,677.023,92.0119,0.921149,92.1149,91.7849
679.082,1706.317,1865,,679.082,1847.565,2022.54,,679.082,92.3549,0.922107,92.2107,91.9402
681.142,1593.258,1752.83,,681.142,1737.729,1903.79,,681.142,91.6862,0.920706,92.0706,92.0579
683.203,1498.317,1645.09,,683.203,1629.665,1789.43,,683.203,91.9402,0.919338,91.9338,92.084
685.265,1407.538,1544.91,,685.265,1520.884,1678.67,,685.265,92.5474,0.920321,92.0321,92.0724
687.327,1327.665,1452.77,,687.327,1427.089,1572.32,,687.327,93.0331,0.923967,92.3967,92.104
689.391,1247.348,1366.42,,689.391,1342.555,1474.85,,689.391,92.9085,0.926486,92.6486,92.1883
691.456,1167.977,1283.89,,691.456,1266.909,1386.44,,691.456,92.1911,0.926035,92.6035,92.2742
693.522,1084.942,1202.23,,693.522,1181.382,1302.62,,693.522,91.8367,0.92293,92.293,92.3494
695.589,1019.018,1123.41,,695.589,1099.399,1217.94,,695.589,92.6886,0.922381,92.2381,92.4015
697.657,953.734,1051.76,,697.657,1034.453,1139.18,,697.657,92.1969,0.923262,92.3262,92.435
699.726,890.863,984.569,,699.726,971.408,1066.88,,699.726,91.7084,0.922845,92.2845,92.3977
701.796,834.985,921.603,,701.796,917.503,1001.66,,701.796,91.0062,0.920073,92.0073,92.2945
703.867,784.451,863.765,,703.867,861.064,943.417,,703.867,91.1025,0.915571,91.5571,92.1401
705.939,735.758,809.174,,705.939,804.537,885.41,,705.939,91.4511,0.913898,91.3898,91.9864
708.012,688.396,758.914,,708.012,759.323,831.585,,708.012,90.6592,0.912612,91.2612,91.803
710.085,642.166,710.802,,710.085,719.139,783.449,,710.085,89.2965,0.907272,90.7272,91.5362
712.16,602.997,665.494,,712.16,670.14,738.668,,712.16,89.9808,0.900937,90.0937,91.163
714.236,566.033,623.961,,714.236,626.682,690.974,,714.236,90.3222,0.903016,90.3016,90.8632
716.313,533.96,585.777,,716.313,586.621,647.561,,716.313,91.023,0.90459,90.459,90.6626
718.391,503.542,550.72,,718.391,553.42,606.872,,718.391,90.9873,0.907472,90.7472,90.5279
720.47,473.894,517.919,,720.47,515.553,569.744,,720.47,91.9196,0.909038,90.9038,90.4856
722.55,442.045,486.198,,722.55,489.289,534.375,,722.55,90.3444,0.909845,90.9845,90.6091
724.631,419.829,457.134,,724.631,456.046,503.092,,724.631,92.0585,0.908649,90.8649,90.7461
726.713,393.276,431.409,,726.713,427.384,471.345,,726.713,92.0194,0.915271,91.5271,90.9271
728.796,367.739,405.356,,728.796,406.484,444.036,,728.796,90.4683,0.91289,91.289,91.0789
730.88,346.169,380.262,,730.88,378.822,417.772,,730.88,91.3804,0.910215,91.0215,91.1176
732.965,331.674,359.051,,732.965,361.79,392.676,,732.965,91.6758,0.914371,91.4371,91.1695
735.051,318.626,341.203,,735.051,344.187,371.911,,735.051,92.5735,0.917431,91.7431,91.3146
737.138,304.544,326.048,,737.138,327.822,352.608,,737.138,92.8992,0.924675,92.4675,91.5329
739.226,291.07,311.799,,739.226,309.223,335.6,,739.226,94.1295,0.929081,92.9081,91.7828
741.315,273.302,296.378,,741.315,291.064,317.051,,741.315,93.8976,0.934797,93.4797,92.2133
743.405,264.688,281.418,,743.405,276.402,299.691,,743.405,95.762,0.939025,93.9025,92.711
745.496,255.615,270.004,,745.496,267.689,285.57,,745.496,95.4895,0.945493,94.5493,93.2515
747.588,244.827,260.268,,747.588,249.668,272.766,,747.588,98.061,0.954182,95.4182,93.8268
749.681,232.627,248.631,,749.681,240.994,258.037,,749.681,96.5281,0.96355,96.355,94.488
751.775,227.01,238.774,,751.775,237.1,248.653,,751.775,95.7444,0.960273,96.0273,95.0518
753.87,220.16,231.876,,753.87,228.541,240.406,,753.87,96.3328,0.964521,96.4521,95.5267
755.966,210.209,223.03,,755.966,222.743,232.847,,755.966,94.3729,0.957838,95.7838,95.8665
758.063,203.072,214.315,,758.063,209.387,224.581,,758.063,96.9841,0.95429,95.429,95.9606
760.161,196.915,206.974,,760.161,198.162,212.747,,760.161,99.3707,0.972861,97.2861,96.1091
762.26,187.512,200.087,,762.26,193.657,204.219,,762.26,96.8269,0.979767,97.9767,96.3979
764.36,184.206,191.979,,764.36,185.172,196.9,,764.36,99.4783,0.975006,97.5006,96.6815
766.461,176.694,186.081,,766.461,185.015,190.823,,766.461,95.5025,0.975151,97.5151,96.9315
768.562,167.737,178.697,,768.562,177.598,186.254,,768.562,94.4476,0.959424,95.9424,97.1287
770.665,160.517,171.229,,770.665,168.205,179.624,,770.665,95.4294,0.953261,95.3261,96.9799
772.769,157.406,165.284,,772.769,160.362,171.275,,772.769,98.1567,0.965025,96.5025,96.6734
774.874,152.399,160.454,,774.874,156.442,163.531,,774.874,97.4157,0.981185,98.1185,96.668
776.98,142.741,153.58,,776.98,157.256,159.793,,776.98,90.7698,0.961121,96.1121,96.534
779.087,141.841,146.947,,779.087,150.343,156.351,,779.087,94.3449,0.939855,93.9855,96.0435
781.195,139.942,143.952,,781.195,140.336,150.312,,781.195,99.7192,0.957693,95.7693,95.9826
783.304,134.219,139.951,,783.304,142.542,145.898,,783.304,94.161,0.959235,95.9235,96.0797
785.414,138.577,138.956,,785.414,141.88,144.517,,785.414,97.672,0.961517,96.1517,95.825
787.525,129.24,137.398,,787.525,138.395,142.375,,787.525,93.3849,0.965042,96.5042,95.6247
789.637,122.847,131.709,,789.637,135.958,140.064,,789.637,90.3566,0.940347,94.0347,95.6219
791.749,117.333,126.005,,791.749,131.269,136.744,,791.749,89.3836,0.921468,92.1468,95.2313
793.863,118.184,121.546,,793.863,129.371,132.71,,793.863,91.3528,0.915878,91.5878,94.3635
795.978,116.213,119.355,,795.978,126.025,130.387,,795.978,92.2142,0.915393,91.5393,93.5883
798.094,113.242,116.863,,798.094,126.645,128.492,,798.094,89.4169,0.909495,90.9495,92.5993
800.211,112.623,114.892,,800.211,120.724,126.79,,800.211,93.2897,0.906156,90.6156,91.6953
802.329,111.168,113.137,,802.329,125.017,126.006,,802.329,88.9223,0.89787,89.787,91.1685
804.448,109.312,111,,804.448,123.93,125.476,,804.448,88.2046,0.884629,88.4629,90.6225
806.567,113.954,110.769,,806.567,122.311,123.382,,806.567,93.1674,0.897772,89.7772,90.1818
808.688,106.991,109.784,,808.688,118.367,122.129,,808.688,90.3892,0.898924,89.8924,89.9729
810.81,109.767,108.798,,810.81,125.329,121.378,,810.81,87.5831,0.896354,89.6354,89.806
812.933,113.279,110.771,,812.933,123.13,122.682,,812.933,91.9995,0.902915,90.2915,89.6694
815.057,117.529,112.56,,815.057,120.642,120.862,,815.057,97.4196,0.931309,93.1309,90.1856
817.181,123.977,115.456,,817.181,129.685,123.09,,817.181,95.5986,0.93798,93.798,91.0623
819.307,129.618,121.3,,819.307,137.701,129.382,,819.307,94.13,0.937539,93.7539,91.7245
821.434,133.287,126.141,,821.434,141.814,134.579,,821.434,93.9872,0.937298,93.7298,92.417
823.562,144.973,133.164,,823.562,150.847,140.696,,823.562,96.106,0.946462,94.6462,93.3047
825.69,155.154,142.124,,825.69,162.962,148.914,,825.69,95.2087,0.954407,95.4407,94.0733
827.82,172.987,153.312,,827.82,184.395,161.474,,827.82,93.8133,0.949449,94.9449,94.4028
829.951,192.829,169.072,,829.951,200.202,177.52,,829.951,96.3172,0.952409,95.2409,94.6276
832.082,208.942,186.207,,832.082,211.484,192.708,,832.082,98.798,0.966265,96.6265,95.097
834.215,223.075,201.706,,834.215,217.983,204.276,,834.215,102.336,0.987417,98.7417,95.8476
836.349,229.131,213.15,,836.349,222.188,211.359,,836.349,103.125,1.00848,100.848,96.8451
838.483,258.603,227.399,,838.483,255.234,223.382,,838.483,101.32,1.01798,101.798,98.0574
840.619,307.24,255.142,,840.619,308.756,252.75,,840.619,99.509,1.00946,100.946,99.2579
842.755,384.737,300.098,,842.755,374.652,296.792,,842.755,102.692,1.01114,101.114,100.23
844.893,479.255,367.123,,844.893,464.696,359.307,,844.893,103.133,1.02175,102.175,101.08
847.032,578.353,450.845,,847.032,557.035,437.958,,847.032,103.827,1.02943,102.943,101.661
849.171,678.57,541.607,,849.171,661.057,525.484,,849.171,102.649,1.03068,103.068,101.973
851.312,787.614,640.825,,851.312,756.098,619.683,,851.312,104.168,1.03412,103.412,102.296
853.453,882.541,741.825,,853.453,857.691,715.358,,853.453,102.897,1.037,103.7,102.839
855.596,977.736,839.565,,855.596,945.06,813.531,,855.596,103.458,1.032,103.2,103.158
857.739,1062.511,933.525,,857.739,1009.281,898.409,,857.739,105.274,1.03909,103.909,103.367
859.884,1136.96,1020.69,,859.884,1085.862,977.02,,859.884,104.706,1.04469,104.469,103.612
862.029,1184.658,1094.23,,862.029,1134.54,1048.31,,862.029,104.417,1.0438,104.38,103.854
864.175,1231.718,1152.71,,864.175,1180.224,1104.7,,864.175,104.363,1.04346,104.346,103.998
866.323,1270.922,1204.19,,866.323,1219.693,1154.71,,866.323,104.2,1.04285,104.285,104.166
868.471,1320.122,1250.26,,868.471,1270.779,1200.42,,868.471,103.883,1.04152,104.152,104.316
870.621,1388.2,1303.39,,870.621,1328.341,1250.62,,870.621,104.506,1.0422,104.22,104.302
872.771,1464.673,1366.94,,872.771,1407.639,1310.18,,872.771,104.052,1.04332,104.332,104.28
874.922,1564.534,1442.78,,874.922,1501.233,1383.95,,874.922,104.217,1.04251,104.251,104.255
877.075,1686.238,1537,,877.075,1615.768,1472.94,,877.075,104.361,1.0435,104.35,104.251
879.228,1812.412,1646.51,,879.228,1742.694,1578.64,,879.228,104.001,1.04299,104.299,104.266
881.382,1944.003,1767.09,,881.382,1861.847,1694.73,,881.382,104.413,1.04269,104.269,104.289
883.537,2064.922,1891.48,,883.537,1967.351,1809.46,,883.537,104.96,1.04533,104.533,104.318
885.694,2160.515,2007.32,,885.694,2063.009,1916.59,,885.694,104.726,1.04734,104.734,104.399
887.851,2231.619,2106.03,,887.851,2128.935,2010.83,,887.851,104.823,1.04734,104.734,104.485
890.009,2270.7,2183.45,,890.009,2174.289,2085.22,,890.009,104.434,1.04711,104.711,104.557
892.168,2274.643,2231.39,,892.168,2167.414,2133.41,,892.168,104.947,1.04593,104.593,104.623
894.328,2214.803,2240.62,,894.328,2119.476,2141.3,,894.328,104.498,1.04639,104.639,104.676
896.489,2117.361,2201.68,,896.489,2026.271,2108.09,,896.489,104.495,1.0444,104.44,104.65
898.651,2001.993,2129.34,,898.651,1918.326,2037.89,,898.651,104.361,1.04487,104.487,104.599
900.815,1868.668,2028.04,,900.815,1785.282,1942.55,,900.815,104.671,1.04401,104.401,104.54
902.979,1728.809,1908.12,,902.979,1649.08,1825.48,,902.979,104.835,1.04527,104.527,104.513
905.144,1589.91,1778.6,,905.144,1520.884,1700.28,,905.144,104.539,1.04606,104.606,104.509
907.31,1443.19,1642.14,,907.31,1390.411,1573.02,,907.31,103.796,1.04394,104.394,104.493
909.477,1322.121,1506.03,,909.477,1272.518,1446.96,,909.477,103.898,1.04082,104.082,104.437
911.644,1210.265,1380.92,,911.644,1161.269,1326.88,,911.644,104.219,1.04073,104.073,104.364
913.813,1111.775,1266.07,,913.813,1069.772,1215.71,,913.813,103.926,1.04142,104.142,104.304
915.983,1023.492,1161.53,,915.983,988.66,1118.11,,915.983,103.523,1.03883,103.883,104.184
918.154,950.026,1070.19,,918.154,909.367,1029.4,,918.154,104.471,1.03962,103.962,104.057
920.326,877.469,988.533,,920.326,840.982,947.826,,920.326,104.339,1.04295,104.295,104.05
922.499,808.549,912.38,,922.499,785.234,877.373,,922.499,102.969,1.0399,103.99,104.058
924.673,739.083,840.494,,924.673,726.212,813.978,,924.673,101.772,1.03258,103.258,103.933
926.847,689.798,774.571,,926.847,673.645,755.023,,926.847,102.398,1.02589,102.589,103.683
929.023,641.877,719.02,,929.023,616.077,698.139,,929.023,104.188,1.02991,102.991,103.487
931.2,584.774,662.673,,931.2,561.781,640.213,,931.2,104.093,1.03508,103.508,103.353
933.377,541.035,609.095,,933.377,520.304,588.161,,933.377,103.984,1.03559,103.559,103.233
935.556,494.749,561.419,,935.556,473.28,540.136,,935.556,104.536,1.0394,103.94,103.265
937.736,449.919,514.714,,937.736,444.62,497.338,,937.736,101.192,1.03494,103.494,103.431
939.916,414.542,472.139,,939.916,412.505,461.97,,939.916,100.494,1.02201,102.201,103.407
942.098,388.529,433.955,,942.098,382.026,427.176,,942.098,101.702,1.01587,101.587,103.11
944.28,367.516,404.086,,944.28,357.638,396.484,,944.28,102.762,1.01917,101.917,102.773
946.464,348.684,379.361,,946.464,338.612,371.382,,946.464,102.974,1.02148,102.148,102.464
948.648,325.398,356.932,,948.648,323.405,350.131,,948.648,100.616,1.01943,101.943,102.1
950.834,311.475,336.65,,950.834,304.379,331.288,,950.834,102.331,1.01619,101.619,101.87
953.02,293.097,319.533,,953.02,291.17,312.93,,953.02,100.662,1.0211,102.11,101.905
955.207,282.446,302.803,,955.207,282.78,299.394,,955.207,99.8819,1.01138,101.138,101.87
957.396,271.613,289.567,,957.396,274.843,289.202,,957.396,98.8248,1.00126,100.126,101.583
959.585,264.69,278.179,,959.585,262.27,278.682,,959.585,100.923,0.998195,99.8195,101.16
961.775,258.402,269.72,,961.775,258.151,268.507,,961.775,100.097,1.00451,100.451,100.893
963.966,250.568,261.612,,963.966,254.941,261.316,,963.966,98.2847,1.00113,100.113,100.554
966.159,248.189,255.588,,966.159,249.184,255.731,,966.159,99.6007,0.999439,99.9439,100.176
968.352,245.991,251.725,,968.352,245.245,251.243,,968.352,100.304,1.00192,100.192,100.024
970.546,245.339,247.546,,970.546,243.579,247.699,,970.546,100.723,0.999381,99.9381,100.02
972.741,244.595,246.587,,972.741,247.457,246.404,,972.741,98.8434,1.00074,100.074,100.009
974.937,234.488,241.668,,974.937,250.154,248.187,,974.937,93.7375,0.973734,97.3734,99.6489
977.134,246.38,240.679,,977.134,255.304,251.319,,977.134,96.5046,0.957662,95.7662,98.9479
979.332,252.727,246.132,,979.332,259.999,254.524,,979.332,97.2031,0.967029,96.7029,98.2856
981.531,259.709,252.144,,981.531,265.33,259.407,,981.531,97.8815,0.972002,97.2002,97.739
983.731,271.237,258.337,,983.731,271.115,263.446,,983.731,100.045,0.980604,98.0604,97.2974
985.932,280.673,266.832,,985.932,279.717,269.85,,985.932,100.342,0.988817,98.8817,97.2122
988.134,292.11,275.889,,988.134,288.592,276.398,,988.134,101.219,0.998155,99.8155,97.8039
990.336,306.091,287.563,,990.336,304.103,287.506,,990.336,100.654,1.0002,100.02,98.5509
992.54,311.981,298.687,,992.54,312.703,299.062,,992.54,99.7691,0.998748,99.8748,99.1332
994.745,327.689,309.434,,994.745,332.031,310.388,,994.745,98.6923,0.996927,99.6927,99.5622
996.951,341.488,322.577,,996.951,345.812,325.534,,996.951,98.7496,0.990916,99.0916,99.7055
999.157,353.65,335.336,,999.157,349.411,336.816,,999.157,101.213,0.995605,99.5605,99.6913
1001.365,363.266,347.432,,1001.365,361.555,346.187,,1001.365,100.473,1.00359,100.359,99.7267
1003.573,377.791,359.038,,1003.573,380.062,358.838,,1003.573,99.4025,1.00056,100.056,99.7484
1005.783,395.77,373.677,,1005.783,394.568,373.644,,1005.783,100.305,1.00009,100.009,99.7713
1007.993,418.112,390.395,,1007.993,413.801,388.537,,1007.993,101.042,1.00478,100.478,99.9487
1010.205,445.363,411.809,,1010.205,445.124,410.293,,1010.205,100.054,1.0037,100.37,100.196
1012.417,471.977,436.054,,1012.417,471.173,434.633,,1012.417,100.171,1.00327,100.327,100.242
1014.631,512.5,464.222,,1014.631,504.404,462.228,,1014.631,101.605,1.00431,100.431,100.259
1016.845,547.023,497.151,,1016.845,547.543,494.746,,1016.845,99.905,1.00486,100.486,100.366
1019.06,600.454,535.801,,1019.06,593.226,534.401,,1019.06,101.218,1.00262,100.262,100.376
1021.277,643.43,581.759,,1021.277,641.091,577.026,,1021.277,100.365,1.0082,100.82,100.427
1023.494,667.224,618.965,,1023.494,672.682,618.95,,1023.494,99.1886,1.00002,100.002,100.429
1025.712,703.473,653.056,,1025.712,700.636,653.562,,1025.712,100.405,0.999227,99.9227,100.352
1027.931,731.539,687.036,,1027.931,723.589,684.128,,1027.931,101.099,1.00425,100.425,100.303
1030.151,750.15,714.004,,1030.151,746.36,710.127,,1030.151,100.508,1.00546,100.546,100.348
1032.372,760.396,735.509,,1032.372,762.675,733.866,,1032.372,99.7012,1.00224,100.224,100.3
1034.594,767.006,749.296,,1034.594,772.535,752.162,,1034.594,99.2843,0.99619,99.619,100.165
1036.817,774.616,760.797,,1036.817,784.121,766.641,,1036.817,98.7878,0.992377,99.2377,100.057
1039.041,777.771,768.438,,1039.041,784.706,776.29,,1039.041,99.1162,0.989886,98.9886,99.8527
1041.266,784.47,774.862,,1041.266,789.018,782.075,,1041.266,99.4236,0.990776,99.0776,99.5769
1043.492,786.533,780.477,,1043.492,792.237,785.442,,1043.492,99.28,0.993679,99.3679,99.3557
1045.718,788.322,784.46,,1045.718,793.002,788.197,,1045.718,99.4098,0.995259,99.5259,99.2523
1047.946,781.929,785.549,,1047.946,792.401,789.724,,1047.946,98.6784,0.994713,99.4713,99.2555
1050.175,786.717,786.089,,1050.175,793.436,791.619,,1050.175,99.1532,0.993014,99.3014,99.2947
1052.405,778.414,785.189,,1052.405,792.47,791.89,,1052.405,98.2263,0.991538,99.1538,99.3301
1054.635,775.293,779.959,,1054.635,785.776,789.36,,1054.635,98.6659,0.98809,98.809,99.2694
1056.867,767.807,775.247,,1056.867,787.626,786.615,,1056.867,97.4837,0.985548,98.5548,99.1254
1059.099,768.411,772.495,,1059.099,787.384,785.817,,1059.099,97.5904,0.983048,98.3048,98.9063
1061.333,752.378,766.804,,1061.333,773.686,781.92,,1061.333,97.2459,0.980667,98.0667,98.6681
1063.567,751.345,758.369,,1063.567,766.806,775.044,,1063.567,97.9837,0.978485,97.8485,98.3969
1065.802,749.493,754.543,,1065.802,755.742,768.407,,1065.802,99.1731,0.981957,98.1957,98.2235
1068.039,730.367,746.989,,1068.039,747.405,760.279,,1068.039,97.7204,0.98252,98.252,98.1422
1070.276,723.787,736.447,,1070.276,743.794,753.164,,1070.276,97.3101,0.977804,97.7804,98.0532
1072.514,713.751,728.23,,1072.514,733.181,745.682,,1072.514,97.3499,0.976597,97.6597,97.9627
1074.753,705.806,718.297,,1074.753,730.386,738.361,,1074.753,96.6347,0.972827,97.2827,97.8778
1076.993,702.496,711.582,,1076.993,723.134,732.281,,1076.993,97.146,0.971734,97.1734,97.731
1079.234,690.549,703.62,,1079.234,719.154,726.24,,1079.234,96.0224,0.968854,96.8854,97.4833
1081.476,688.238,695.16,,1081.476,701.537,717.852,,1081.476,98.1043,0.968389,96.8389,97.2398
1083.719,674.835,687.457,,1083.719,693.645,707.543,,1083.719,97.2882,0.971611,97.1611,97.1286
1085.963,664.522,677.909,,1085.963,682.57,697.588,,1085.963,97.3559,0.97179,97.179,97.0653
1088.208,650.936,667.086,,1088.208,679.494,689.411,,1088.208,95.7972,0.967618,96.7618,97.0238
1090.454,651.713,658.292,,1090.454,672.417,683.648,,1090.454,96.921,0.962911,96.2911,96.8866
1092.772,646.944,654.638,,1092.772,662.701,676.076,,1092.772,97.6223,0.968291,96.8291,96.8678
1094.985,635.265,646.959,,1094.985,655.712,667.492,,1094.985,96.8817,0.969239,96.9239,96.8485
1097.197,636.585,640.637,,1097.197,655.176,661.371,,1097.197,97.1624,0.968651,96.8651,96.7811
1099.409,623.722,636.384,,1099.409,648.729,656.29,,1099.409,96.1452,0.96967,96.967,96.757
1101.622,608.677,626.056,,1101.622,643.735,651.077,,1101.622,94.554,0.961569,96.1569,96.7467
1103.834,599.722,613.952,,1103.834,630.558,644.368,,1103.834,95.1097,0.952797,95.2797,96.5571
1106.047,584.675,601.732,,1106.047,617.47,634.861,,1106.047,94.6888,0.947817,94.7817,96.1751
1108.259,576.082,590.281,,1108.259,604.108,622.5,,1108.259,95.3608,0.948243,94.8243,95.7843
1110.472,567.851,581.043,,1110.472,594.744,610.059,,1110.472,95.4782,0.952438,95.2438,95.4361
1112.684,562.347,573.256,,1112.684,588.197,601.125,,1112.684,95.6052,0.953638,95.3638,95.1796
1114.897,546.752,562.963,,1114.897,576.102,592.421,,1114.897,94.9054,0.950275,95.0275,95.0719
1117.109,535.7,550.664,,1117.109,572.643,583.804,,1117.109,93.5487,0.943234,94.3234,94.9787
1119.321,526.648,540.248,,1119.321,558.727,574.676,,1119.321,94.2586,0.940091,94.0091,94.8459
1121.534,519.141,530.904,,1121.534,542.991,561.379,,1121.534,95.6077,0.945715,94.5715,94.7316
1123.746,505.723,521.078,,1123.746,534.618,550.187,,1123.746,94.5952,0.947093,94.7093,94.6315
1125.959,497.032,510.319,,1125.959,521.969,539.044,,1125.959,95.2225,0.946712,94.6712,94.5154
1128.171,490.158,501.855,,1128.171,512.41,527.379,,1128.171,95.6574,0.951602,95.1602,94.5596
1130.384,474.193,491.844,,1130.384,505.941,517.299,,1130.384,93.725,0.950792,95.0792,94.7547
1132.596,456.317,477.624,,1132.596,492.015,507.577,,1132.596,92.7445,0.940988,94.0988,94.7853
1134.809,448.986,463.828,,1134.809,476.541,494.825,,1134.809,94.2177,0.937358,93.7358,94.6029
1137.021,440.108,454.664,,1137.021,467.339,482.482,,1137.021,94.1732,0.942343,94.2343,94.4949
1139.233,427.139,443.751,,1139.233,447.226,469.085,,1139.233,95.5085,0.945991,94.5991,94.4241
1141.446,404.35,428.584,,1141.446,436.474,453.839,,1141.446,92.6401,0.944352,94.4352,94.3066
1143.658,396.469,413.399,,1143.658,427.176,442.761,,1143.658,92.8116,0.933684,93.3684,94.1133
1145.871,390.406,402.992,,1145.871,417.603,433.352,,1145.871,93.4874,0.929941,92.9941,93.9729
1148.083,377.251,392.71,,1148.083,406.664,423.006,,1148.083,92.7672,0.928378,92.8378,93.7825
1150.296,358.822,379.549,,1150.296,397.997,412.288,,1150.296,90.157,0.920592,92.0592,93.4121
1152.508,350.938,366.239,,1152.508,378.873,399.405,,1152.508,92.6268,0.916961,91.6961,92.843
1154.721,341.508,356.153,,1154.721,371.929,386.306,,1154.721,91.8208,0.921946,92.1946,92.4995
1156.933,329.894,344.73,,1156.933,362.529,377.74,,1156.933,90.998,0.912612,91.2612,92.2015
1159.145,326.098,336.003,,1159.145,345.945,365.105,,1159.145,94.263,0.920291,92.0291,91.9574
1161.358,313.574,327.686,,1161.358,337.269,352.556,,1161.358,92.9745,0.929457,92.9457,91.9769
1163.57,307.685,318.757,,1163.57,331.501,343.465,,1163.57,92.8157,0.928065,92.8065,92.1765
1165.783,297.068,310.694,,1165.783,320.367,334.68,,1165.783,92.7274,0.92833,92.833,92.3438
1167.995,284.905,299.759,,1167.995,314.595,325.575,,1167.995,90.5625,0.920706,92.0706,92.4393
1170.208,275.014,288.312,,1170.208,309.912,318.454,,1170.208,88.7394,0.905349,90.5349,92.3632
1172.42,271.94,279.684,,1172.42,302.319,311.822,,1172.42,89.9513,0.896936,89.6936,91.8656
1174.633,263.32,274.008,,1174.633,293.452,303.95,,1174.633,89.7319,0.90149,90.149,91.3402
1176.845,252.154,265.335,,1176.845,287.311,296.555,,1176.845,87.7634,0.894726,89.4726,90.745
1179.057,244.078,256.752,,1179.057,269.168,287.512,,1179.057,90.6787,0.89301,89.301,90.0977
1181.27,246.183,250.443,,1181.27,259.57,275.388,,1181.27,94.8426,0.90942,90.942,89.8793
1183.482,246.469,248.773,,1183.482,258.334,266.759,,1183.482,95.4071,0.932575,93.2575,90.3552
1185.695,229.119,242.427,,1185.695,253.916,260.707,,1185.695,90.2342,0.929882,92.9882,90.981
1187.907,219.586,232.115,,1187.907,251.678,256.108,,1187.907,87.2488,0.906315,90.6315,91.2485
1190.12,213.689,224.488,,1190.12,240.621,251.416,,1190.12,88.8073,0.892894,89.2894,91.3214
1192.332,204.882,217.043,,1192.332,233.382,244.964,,1192.332,87.7883,0.88602,88.602,91.1462
1194.545,203.53,210.573,,1194.545,223.506,236.57,,1194.545,91.0624,0.890109,89.0109,90.5418
1196.757,203.178,207.218,,1196.757,220.356,227.657,,1196.757,92.2044,0.910221,91.0221,89.9729
1198.969,204.825,205.443,,1198.969,222.843,224.322,,1198.969,91.9145,0.915841,91.5841,89.8822
1201.182,205.291,204.765,,1201.182,222.693,224.009,,1201.182,92.1857,0.914091,91.4091,90.1626
1203.394,207.756,206.401,,1203.394,227.543,224.733,,1203.394,91.3041,0.918429,91.8429,90.6713
1205.607,208.676,207.137,,1205.607,221.393,224.578,,1205.607,94.2559,0.922339,92.2339,91.3072
1207.819,199.233,205.484,,1207.819,215.152,219.749,,1207.819,92.601,0.935084,93.5084,91.9573
1210.032,191.517,200.009,,1210.032,210.821,215.869,,1210.032,90.8434,0.926533,92.6533,92.248
1212.244,189.801,195.17,,1212.244,206.855,212.013,,1212.244,91.7556,0.920556,92.0556,92.3657
1214.456,185.45,191.953,,1214.456,197.525,207.03,,1214.456,93.8868,0.927174,92.7174,92.4859
1216.669,173.008,185.944,,1216.669,185.106,198.968,,1216.669,93.4643,0.934544,93.4544,92.7573
1218.881,157.112,175.232,,1218.881,171.779,188.373,,1218.881,91.4617,0.93024,93.024,92.806
1221.094,142.763,161.945,,1221.094,151.726,174.676,,1221.094,94.0926,0.927118,92.7118,92.7094
1223.306,129.596,147.781,,1223.306,139.766,159.438,,1223.306,92.7236,0.926884,92.6884,92.8159
1225.519,123.613,136.57,,1225.519,124.081,145.808,,1225.519,99.6228,0.936642,93.6642,93.0335
1227.731,116.448,128.266,,1227.731,117.488,132.501,,1227.731,99.1148,0.968037,96.8037,93.5767
1229.944,105.74,119.614,,1229.944,112.353,124.089,,1229.944,94.1141,0.963943,96.3943,94.2002
1232.156,98.487,110.812,,1232.156,97.22,114.347,,1232.156,101.303,0.969085,96.9085,94.9187
1234.368,92.6,102.367,,1234.368,97.727,105.743,,1234.368,94.7538,0.968078,96.8078,95.7429
1236.581,92.441,98.1183,,1236.581,95.509,101.209,,1236.581,96.7877,0.969466,96.9466,96.4674
1238.793,82.103,92.4467,,1238.793,88.568,95.5963,,1238.793,92.7005,0.967053,96.7053,96.8235
1241.006,74.675,84.8304,,1241.006,82.539,89.3296,,1241.006,90.4724,0.949633,94.9633,96.5336
1242.586,70.486,80.5552,,1242.586,79.058,86.0609,,1242.586,89.1573,0.936026,93.6026,