File: public_html/data/backup/plexiglas_1C33.csv
wavelength_nm,intensity,intensity_smoothed,,wavelength_nm2,intensity_i0,intensity_i0_smoothed,,wavelength_nm3,,transmission,transmission_perc,transmission_perc_smoothed
173.232,14.801,#N/A,,173.232,26.786,#N/A,,173.232,55.2565,#N/A,#N/A,#N/A
175.084,26.8,18.443,,175.084,38.604,29.6984,,175.084,69.4229,0.621009,62.1009,#N/A
176.935,26.89,23.2573,,176.935,36.058,34.7287,,176.935,74.5743,0.669684,66.9684,#N/A
178.787,26.799,24.2633,,178.787,36.057,35.7311,,178.787,74.324,0.679051,67.9051,#N/A
180.639,23.162,24.5778,,180.639,33.693,36.2498,,180.639,68.7442,0.678013,67.8013,#N/A
182.491,24.434,23.6141,,182.491,35.146,34.8517,,182.491,69.5214,0.677561,67.7561,#N/A
184.342,24.433,23.8005,,184.342,38.873,36.5629,,184.342,62.8534,0.650946,65.0946,67.2218
186.194,22.25,23.3372,,186.194,37.236,37.7408,,186.194,59.754,0.618353,61.8353,67.0623
188.046,26.795,23.6285,,188.046,41.599,37.9195,,188.046,64.4126,0.623122,62.3122,65.9168
189.897,24.703,24.1603,,189.897,38.507,39.5136,,189.897,64.152,0.611442,61.1442,64.564
191.749,22.066,22.9564,,191.749,31.688,37.3555,,191.749,69.6352,0.614539,61.4539,63.3063
193.601,21.702,22.4149,,193.601,33.505,35.5764,,193.601,64.7724,0.63005,63.005,62.5079
195.453,22.428,21.4691,,195.453,33.504,35.1224,,195.453,66.9413,0.611265,61.1265,62.1311
197.304,21.064,21.348,,197.304,32.14,34.8236,,197.304,65.5383,0.613034,61.3034,62.1722
199.156,21.609,21.5327,,199.156,31.503,33.8949,,199.156,68.5935,0.635279,63.5279,62.3683
201.008,26.699,23.0824,,201.008,34.684,33.8897,,201.008,76.9779,0.681105,68.1105,63.2949
202.86,23.607,24.2467,,202.86,34.683,34.1697,,202.86,68.065,0.709597,70.9597,64.713
204.711,23.697,23.7221,,204.711,35.227,35.1271,,204.711,67.2694,0.675321,67.5321,65.7938
206.563,24.151,23.6964,,206.563,32.136,34.3423,,206.563,75.1525,0.690006,69.0006,66.9874
208.415,24.696,23.2457,,208.415,36.68,34.8728,,208.415,67.3282,0.666583,66.6583,68.0465
210.267,23.786,23.5194,,210.267,34.316,35.8565,,210.267,69.3146,0.655931,65.5931,68.2476
212.118,27.967,25.6799,,212.118,32.679,35.2305,,212.118,85.581,0.728911,72.8911,68.2834
213.97,24.602,26.2164,,213.97,29.859,33.8215,,213.97,82.3939,0.77514,77.514,69.6036
215.822,17.238,23.2196,,215.822,29.859,31.0561,,215.822,57.7313,0.747666,74.7666,71.2883
217.673,17.964,20.5284,,217.673,35.858,33.0981,,217.673,50.0976,0.620229,62.0229,70.7341
219.525,25.418,22.1792,,219.525,29.402,33.5853,,219.525,86.4499,0.660383,66.0383,70.1417
221.377,22.508,22.9141,,221.377,33.31,32.2544,,221.377,67.5713,0.71042,71.042,70.7653
223.229,23.871,23.8087,,223.229,37.764,34.2879,,223.229,63.211,0.694375,69.4375,69.886
225.08,21.688,24.0163,,225.08,38.763,35.4599,,225.08,55.9503,0.67728,67.728,68.1987
226.932,18.96,21.7146,,226.932,38.217,37.2011,,226.932,49.6114,0.583708,58.3708,66.5643
228.784,24.505,21.3767,,228.784,32.761,36.0345,,228.784,74.7993,0.593229,59.3229,65.9048
230.636,25.958,23.4015,,230.636,29.397,34.1797,,230.636,88.3015,0.684661,68.4661,65.1787
232.487,22.139,23.7675,,232.487,33.214,33.1807,,232.487,66.6556,0.716305,71.6305,65.4462
234.339,24.229,24.0777,,234.339,34.304,34.4358,,234.339,70.6302,0.699206,69.9206,65.7107
236.191,25.956,25.137,,236.191,27.485,31.4748,,236.191,94.437,0.798638,79.8638,67.9951
238.043,27.137,24.2551,,238.043,35.848,30.3274,,238.043,75.7002,0.799776,79.9776,72.3983
239.894,28.863,25.2376,,239.894,44.574,35.5211,,239.894,64.753,0.710495,71.0495,74.3259
241.746,38.953,30.0747,,241.746,53.482,42.8589,,241.746,72.8339,0.701715,70.1715,74.0504
243.598,44.498,35.9066,,243.598,62.208,50.6793,,243.598,71.531,0.708506,70.8506,73.9595
245.449,49.406,41.1465,,245.449,62.662,56.7962,,245.449,78.8452,0.724459,72.4459,73.8214
247.301,43.405,43.4257,,247.301,66.025,60.0306,,247.301,65.7402,0.723392,72.3392,72.3569
249.153,49.677,44.4997,,249.153,75.569,66.0606,,249.153,65.7373,0.673619,67.3619,70.9029
251.005,49.039,47.4029,,251.005,79.023,71.749,,251.005,62.0566,0.660677,66.0677,70.1824
252.856,42.675,46.2453,,252.856,77.567,74.9429,,252.856,55.017,0.617073,61.7073,68.8152
254.681,50.31,46.4293,,254.681,79.021,76.3829,,254.681,63.6666,0.607849,60.7849,66.7964
256.513,55.218,49.2729,,256.513,83.292,79.0528,,256.513,66.2945,0.62329,62.329,64.5704
258.347,55.49,52.4911,,258.347,84.019,82.1099,,258.347,66.0446,0.639278,63.9278,63.3238
260.181,52.489,53.7279,,260.181,84.472,83.6374,,260.181,62.1377,0.642391,64.2391,62.7816
262.017,51.034,52.5063,,262.017,81.108,83.7727,,262.017,62.921,0.626771,62.6771,62.5177
263.853,58.396,53.9631,,263.853,85.197,83.7059,,263.853,68.5423,0.644676,64.4676,63.1017
265.691,58.759,58.3183,,265.691,83.469,84.7439,,265.691,70.3962,0.688172,68.8172,64.3031
267.53,49.031,56.8086,,267.53,78.923,83.0577,,267.53,62.1251,0.683965,68.3965,65.3956
269.369,52.393,53.1748,,269.369,82.013,82.1681,,269.369,63.8838,0.647147,64.7147,65.7146
271.21,52.302,52.6622,,271.21,81.648,82.5729,,271.21,64.0579,0.637766,63.7766,65.8582
273.052,47.21,51.4113,,273.052,78.374,81.0571,,273.052,60.2368,0.634261,63.4261,65.9219
274.895,50.391,50.5543,,274.895,79.009,79.5774,,274.895,63.7788,0.635285,63.5285,65.3238
276.739,49.117,50.6845,,276.739,83.554,81.013,,276.739,58.7847,0.625634,62.5634,64.201
278.584,51.298,50.8942,,278.584,79.462,81.556,,278.584,64.5566,0.62404,62.404,63.3247
280.431,51.115,51.4631,,280.431,84.461,81.9941,,280.431,60.5191,0.627644,62.7644,63.0325
282.278,52.659,52.0662,,282.278,87.55,84.3235,,282.278,60.1473,0.617457,61.7457,62.706
284.126,51.204,52.5026,,284.126,87.549,85.4577,,284.126,58.4861,0.614369,61.4369,62.3947
285.976,53.657,51.5809,,285.976,89.821,87.2231,,285.976,59.7377,0.591368,59.1368,61.6952
287.826,50.383,51.7822,,287.826,86.82,87.5194,,287.826,58.0316,0.591666,59.1666,61.1296
289.678,55.201,52.5505,,289.678,88.001,87.5632,,289.678,62.7277,0.600144,60.0144,60.5067
291.531,57.381,54.6525,,291.531,82.999,86.9141,,291.531,69.1346,0.62881,62.881,60.4199
293.385,50.744,53.2057,,293.385,86.544,86.0818,,293.385,58.6338,0.618083,61.8083,60.6001
295.239,54.106,52.5818,,295.239,83.452,86.6223,,295.239,64.8349,0.607024,60.7024,60.6856
297.095,53.833,53.6268,,297.095,80.632,83.1922,,297.095,66.7638,0.644613,64.4613,61.4794
298.952,54.832,53.5194,,298.952,84.904,83.8708,,298.952,64.5812,0.638117,63.8117,62.415
300.81,52.831,53.0643,,300.81,81.721,82.882,,300.81,64.648,0.640239,64.0239,62.9898
302.669,60.011,53.9114,,302.669,90.811,84.7768,,302.669,66.0834,0.635922,63.5922,63.1226
304.53,53.374,55.1965,,304.53,88.537,86.7993,,304.53,60.2844,0.63591,63.591,63.6349
306.391,55.373,54.1194,,306.391,85.536,86.9114,,306.391,64.7365,0.622697,62.2697,63.6863
308.253,48.826,53.5345,,308.253,82.171,84.5328,,308.253,59.42,0.633298,63.3298,63.4351
310.117,50.643,49.8196,,310.117,84.624,82.3974,,310.117,59.8447,0.604626,60.4626,62.9239
311.981,52.46,50.3594,,311.981,90.623,85.0406,,311.981,57.8882,0.59218,59.218,62.1631
313.847,52.186,51.7345,,313.847,85.258,86.5371,,313.847,61.2095,0.597831,59.7831,61.3694
315.713,54.549,53.1637,,315.713,86.621,85.0832,,315.713,62.9743,0.624844,62.4844,61.1436
317.581,57.275,54.3681,,317.581,89.074,85.5077,,317.581,64.3005,0.635827,63.5827,61.1551
319.45,57.001,56.2903,,319.45,86.709,86.1281,,319.45,65.7383,0.653564,65.3564,61.6564
321.319,51.818,55.9393,,321.319,85.071,85.8514,,321.319,60.9115,0.651583,65.1583,62.5733
323.19,51.726,53.2976,,323.19,89.525,86.5611,,323.19,57.7783,0.615723,61.5723,63.1482
325.062,54.452,54.1948,,325.062,82.524,87.1706,,325.062,65.9832,0.62171,62.171,63.2504
326.935,49.542,53.8029,,326.935,88.25,86.2735,,326.935,56.1382,0.623632,62.3632,63.2717
328.809,54.359,52.0529,,328.809,91.521,87.842,,328.809,59.3951,0.592574,59.2574,62.464
330.685,60.176,54.4103,,330.685,97.156,91.0015,,330.685,61.9375,0.597906,59.7906,61.4326
332.561,58.538,57.0753,,332.561,89.337,92.2346,,332.561,65.5249,0.618806,61.8806,60.9856
334.438,58.628,57.3651,,334.438,91.608,90.0201,,334.438,63.9988,0.637247,63.7247,61.4216
336.316,58.991,57.4367,,336.316,91.879,91.5528,,336.316,64.2051,0.627361,62.7361,61.4772
338.196,56.717,58.0817,,338.196,87.424,90.232,,338.196,64.8758,0.643693,64.3693,62.0785
340.076,51.988,55.4209,,340.076,90.422,89.0709,,340.076,57.4949,0.622211,62.2211,62.7474
341.958,50.35,52.9078,,341.958,88.694,88.8436,,341.958,56.7682,0.595517,59.5517,62.6395
343.84,53.258,52.6407,,343.84,88.42,88.2726,,343.84,60.233,0.596342,59.6342,61.962
345.724,53.621,53.3901,,345.724,94.418,90.3649,,345.724,56.7911,0.590827,59.0827,61.2054
347.609,52.806,53.1748,,347.609,94.789,93.2687,,347.609,55.709,0.570124,57.0124,60.1152
349.495,50.259,52.7376,,349.495,91.155,93.6846,,349.495,55.1358,0.562927,56.2927,58.7763
351.382,55.961,53.0276,,351.382,90.863,92.7503,,351.382,61.5883,0.571725,57.1725,58.0511
353.269,55.231,54.3089,,353.269,93.89,92.5566,,353.269,58.8252,0.586764,58.6764,57.8677
355.158,56.151,55.3494,,355.158,91.527,92.7964,,355.158,61.3491,0.596461,59.6461,57.8089
357.048,54.993,56.0045,,357.048,92.684,93.1377,,357.048,59.3339,0.601308,60.1308,58.1816
358.94,57.107,56.3179,,358.94,95.218,94.2336,,358.94,59.975,0.597641,59.7641,58.6996
360.832,56.722,56.3792,,360.832,96.431,95.4034,,360.832,58.8213,0.590956,59.0956,59.2248
362.725,57.976,55.9982,,362.725,93.62,95.0673,,362.725,61.9269,0.589037,58.9037,59.4145
364.619,56.711,56.534,,364.619,105.359,96.5883,,364.619,53.8264,0.585309,58.5309,59.3915
366.515,52.714,55.1799,,366.515,104.282,101.133,,366.515,50.5495,0.545615,54.5615,58.5933
368.411,57.309,54.7586,,368.411,101.47,101.551,,368.411,56.4788,0.539222,53.9222,57.4693
370.308,59.674,57.3452,,370.308,97.975,100.897,,370.308,60.9074,0.568354,56.8354,56.7807
372.207,61.199,59.1451,,372.207,105.848,101.347,,372.207,57.8178,0.58359,58.359,56.6104
374.107,61.356,60.5907,,374.107,105.608,103.386,,374.107,58.0979,0.586064,58.6064,56.4729
376.007,57.863,60.748,,376.007,106.189,104.33,,376.007,54.4906,0.582266,58.2266,56.7288
377.909,52.617,57.0507,,377.909,105.226,104.795,,377.909,50.0038,0.544402,54.4402,57.0265
379.812,56.482,54.7982,,379.812,111.582,106.882,,379.812,50.6193,0.512697,51.2697,56.4948
381.716,61.812,56.4517,,381.716,114.291,109.895,,381.716,54.083,0.51369,51.369,55.2728
383.62,63.14,59.7313,,383.62,112.097,112.163,,383.62,56.3262,0.532541,53.2541,54.2375
385.526,59.366,60.7488,,385.526,116.28,112.79,,385.526,51.0544,0.538602,53.8602,53.3856
387.433,57.277,60.4791,,387.433,115.424,114.342,,387.433,49.6231,0.528934,52.8934,52.7547
389.341,58.812,59.5782,,389.341,119.767,115.64,,389.341,49.1053,0.515203,51.5203,52.5075
391.25,58.569,59.4632,,391.25,130.241,120.838,,391.25,44.9697,0.492091,49.2091,52.2546
393.161,56.857,58.284,,393.161,141.583,128.167,,393.161,40.1581,0.454752,45.4752,51.1849
395.072,59.19,58.5654,,395.072,162.278,140.311,,395.072,36.4744,0.417396,41.7396,49.0641
396.984,62.269,59.7601,,396.984,184.699,157.71,,396.984,33.7138,0.378925,37.8925,46.3118
398.897,61.277,60.3615,,398.897,227.497,182.636,,398.897,26.9353,0.330501,33.0501,43.0012
400.812,68.632,62.6845,,400.812,289.932,221.57,,400.812,23.6718,0.282911,28.2911,39.0271
402.727,68.893,65.7508,,402.727,375.612,277.644,,402.727,18.3415,0.236817,23.6817,34.7559
404.644,61.593,64.8568,,404.644,524.35,364.121,,404.644,11.7465,0.178119,17.8119,30.1972
406.561,58.543,62.7554,,406.561,752.631,501.419,,406.561,7.77845,0.125156,12.5156,25.2718
408.48,68.101,64.249,,408.48,1090.276,712.968,,408.48,6.24622,0.0901149,9.01149,20.3246
410.4,67.008,66.3465,,410.4,1576.714,1024.69,,410.4,4.24985,0.064748,6.4748,15.8371
412.32,67.603,66.4184,,412.32,2292.428,1484.04,,412.32,2.94897,0.0447551,4.47551,11.7811
414.242,67.914,67.1556,,414.242,3303.056,2146.55,,414.242,2.0561,0.0312854,3.12854,8.40963
416.165,68.856,67.2087,,416.165,4719.128,3089.8,,416.165,1.45908,0.0217518,2.17518,5.94143
418.089,67.197,67.8088,,418.089,6623.23,4399.73,,418.089,1.01457,0.015412,1.5412,4.21941
420.014,62.421,66.1625,,420.014,9137.17,6168.31,,420.014,0.683155,0.0107262,1.07262,2.95593
421.939,63.651,63.274,,421.939,12355.714,8501.15,,421.939,0.515154,0.00744299,0.744299,2.06072
423.866,65.384,64.1851,,423.866,16253.351,11472.2,,423.866,0.40228,0.00559485,0.559485,1.44543
425.795,58.014,62.0508,,425.795,20920.267,15116.3,,425.795,0.27731,0.0041049,0.41049,1.02166
427.724,63.106,59.5658,,427.724,26342.847,19491.6,,427.724,0.239556,0.00305597,0.305597,0.727261
429.654,64.46,60.7649,,429.654,32472.644,24593,,429.654,0.198506,0.00247083,0.247083,0.525418
431.585,63.968,62.642,,431.585,39466.603,30450.9,,431.585,0.162081,0.00205715,0.205715,0.392996
433.517,65.761,63.3363,,433.517,47212.176,37095.6,,433.517,0.139288,0.00170738,0.170738,0.30243
435.451,70.37,65.9744,,435.451,57567.013,44916.7,,435.451,0.12224,0.00146882,0.146882,0.238148
437.385,65.014,67.507,,437.385,64000,53518.3,,437.385,0.101584,0.00126138,0.126138,0.195089
439.32,64.292,65.7413,,439.32,64000,58986.7,,439.32,0.100456,0.00111451,0.111451,0.164068
441.257,69.006,66.6029,,441.257,64000,61602.1,,441.257,0.107822,0.00108118,0.108118,0.141259
443.194,60.6,66.0715,,443.194,63787.125,62827.3,,443.194,0.0950035,0.00105164,0.105164,0.125522
445.133,62.447,64.4865,,445.133,62883.234,63135.6,,445.133,0.0993063,0.0010214,0.10214,0.114619
447.072,64.098,64.0985,,447.072,61142.14,62615.5,,447.072,0.104834,0.00102368,0.102368,0.107773
449.013,64.688,63.7714,,449.013,56984.331,60958,,449.013,0.113519,0.00104615,0.104615,0.104937
450.955,61.882,63.5044,,450.955,48943.691,56974.3,,450.955,0.126435,0.00111461,0.111461,0.104928
452.897,59.899,61.5747,,452.897,40056.044,50478,,452.897,0.149538,0.00121983,0.121983,0.107072
454.841,59.519,59.3138,,454.841,32726.301,43097.4,,454.841,0.181869,0.00137627,0.137627,0.11271
456.786,60.11,59.5674,,456.786,27131.96,36193.8,,456.786,0.221547,0.00164579,0.164579,0.123123
458.732,60.395,59.9937,,458.732,22827.2,30323.6,,458.732,0.264575,0.00197845,0.197845,0.139199
460.679,55.332,58.9164,,460.679,19324.818,25488.8,,460.679,0.286326,0.00231146,0.231146,0.160966
462.627,55.511,56.6851,,462.627,16380.89,21505.9,,462.627,0.338877,0.00263579,0.263579,0.187219
464.576,62.1,58.7791,,464.576,13857.231,18175.3,,464.576,0.448141,0.00323401,0.323401,0.220521
466.526,60.137,59.4268,,466.526,11729.578,15364,,466.526,0.512695,0.00386793,0.386793,0.262241
468.477,60.953,59.6106,,468.477,9995.534,13006.5,,468.477,0.609802,0.00458315,0.458315,0.311221
470.429,56.479,60.3312,,470.429,8656.172,11077,,470.429,0.652471,0.00544651,0.544651,0.369617
472.382,56.767,59.069,,472.382,7635.598,9541.11,,472.382,0.743452,0.006191,0.6191,0.436165
474.336,55.916,58.3703,,474.336,6854.628,8338.67,,474.336,0.815741,0.00699996,0.699996,0.510059
476.292,67.623,61.0061,,476.292,6260.377,7405.36,,476.292,1.08017,0.0082381,0.82381,0.591496
478.248,70.717,66.1958,,478.248,5803.889,6686.65,,478.248,1.21844,0.00989969,0.989969,0.690857
480.205,71.953,67.2586,,480.205,5461.718,6135.55,,480.205,1.31741,0.0109621,1.09621,0.798636
482.164,79.572,72.035,,482.164,5237.861,5720.76,,482.164,1.51917,0.0125918,1.25918,0.918979
484.123,86.838,78.1553,,484.123,5160.507,5444.05,,484.123,1.68274,0.0143561,1.43561,1.05681
486.083,107.249,87.7249,,486.083,5228.466,5308.26,,486.083,2.05125,0.0165261,1.65261,1.2154
488.045,132.675,102.664,,488.045,5480.019,5324.94,,488.045,2.42107,0.0192798,1.92798,1.39535
490.007,181.243,129.714,,490.007,5891.004,5504.92,,490.007,3.07661,0.0235634,2.35634,1.61984
491.971,245.383,171.352,,491.971,6468.471,5846.97,,491.971,3.79352,0.0293062,2.93062,1.92166
493.936,343.736,232.776,,493.936,7190.779,6348.99,,493.936,4.78023,0.0366634,3.66634,2.3216
495.901,492.199,326.466,,495.901,8029.417,6994.04,,495.901,6.12995,0.0466777,4.66777,2.8597
497.868,676.783,456.941,,497.868,9011.373,7778.88,,497.868,7.51032,0.0587412,5.87412,3.57015
499.836,923.157,630.617,,499.836,10104.749,8696.37,,499.836,9.13587,0.072515,7.2515,4.46855
501.804,1213.084,854.627,,501.804,11270.159,9726.87,,501.804,10.7637,0.0878625,8.78625,5.55674
503.774,1584.346,1133.46,,503.774,12464.423,10834.2,,503.774,12.7109,0.104619,10.4619,6.83146
505.745,1999.53,1471.96,,505.745,13673.219,11989.4,,505.745,14.6237,0.122772,12.2772,8.28466
507.717,2470.758,1863.66,,507.717,14872.93,13172.9,,507.717,16.6124,0.141477,14.1477,9.88014
509.69,3010.392,2314.8,,509.69,16056.998,14363.8,,509.69,18.7482,0.161156,16.1156,11.6011
511.664,3607.678,2825.4,,511.664,17217.394,15546.2,,511.664,20.9537,0.181743,18.1743,13.4318
513.639,4272.761,3398.36,,513.639,18283.309,16693.9,,513.639,23.3697,0.203569,20.3569,15.3686
515.615,5015.506,4040.35,,515.615,19258.438,17775.9,,515.615,26.0432,0.227294,22.7294,17.4136
517.592,5823.224,4751.01,,517.592,20128.144,18776.6,,517.592,28.9308,0.253028,25.3028,19.5869
519.57,6727.361,5537.26,,519.57,20880.749,19677.7,,519.57,32.218,0.281398,28.1398,21.92
521.549,7759.336,6417.35,,521.549,21567.103,20481.6,,521.549,35.9776,0.313323,31.3323,24.4563
523.529,8879.738,7401.19,,523.529,22195.328,21213.8,,523.529,40.0072,0.348886,34.8886,27.2479
525.51,10084.609,8476.82,,525.51,22691.129,21857.8,,525.51,44.443,0.387816,38.7816,30.3295
527.493,11365.025,9640.84,,527.493,23058.875,22393.1,,527.493,49.287,0.430528,43.0528,33.7331
529.476,12661.874,10872.2,,529.476,23304.066,22803.7,,529.476,54.3333,0.476771,47.6771,37.4871
531.46,13944.01,12134.2,,531.46,23470.938,23114.7,,531.46,59.4097,0.524956,52.4956,41.5799
533.446,15187.263,13400.3,,533.446,23511.018,23315.5,,533.446,64.5964,0.57474,57.474,45.9713
535.432,16367.115,14635.8,,535.432,23522.14,23420.3,,535.432,69.5817,0.624919,62.4919,50.6121
537.419,17467.078,15823.9,,537.419,23550.666,23479.6,,537.419,74.1681,0.673945,67.3945,55.4228
539.408,18412.82,16924.9,,539.408,23514.322,23508.5,,539.408,78.3047,0.719945,71.9945,60.2833
541.397,19279.497,17930.8,,541.397,23421.676,23487.5,,541.397,82.3148,0.763418,76.3418,65.0852
543.388,19991.328,18824,,543.388,23308.611,23427,,543.388,85.768,0.803516,80.3516,69.7408
545.379,20584.939,19591.3,,545.379,23191.606,23337.7,,545.379,88.7603,0.839472,83.9472,74.1524
547.372,21018.55,20224.3,,547.372,23067.082,23233,,547.372,91.1192,0.870501,87.0501,78.2358
549.365,21308.832,20713.5,,549.365,22873.453,23102.2,,549.365,93.1597,0.896604,89.6604,81.9334
551.36,21537.555,21088.2,,551.36,22657.524,22929.7,,551.36,95.057,0.91969,91.969,85.2348
553.356,21597.536,21343.2,,553.356,22458.012,22738.3,,553.356,96.1685,0.938647,93.8647,88.1241
555.352,21638.173,21488.5,,555.352,22260.207,22544.8,,555.352,97.2056,0.953147,95.3147,90.5824
557.35,21592.193,21561.6,,557.35,21989.908,22330.1,,557.35,98.1914,0.965586,96.5586,92.6436
559.349,21475.891,21548.8,,559.349,21709.137,22080.9,,559.349,98.9256,0.975901,97.5901,94.3664
561.348,21316.882,21473.7,,561.348,21446.354,21819.4,,561.348,99.3963,0.984156,98.4156,95.7891
563.349,21057.601,21325,,563.349,21149.204,21549.7,,563.349,99.5669,0.989571,98.9571,96.9232
565.351,20792.218,21115.9,,565.351,20809.542,21256.4,,565.351,99.9167,0.993386,99.3386,97.8167
567.354,20499.808,20879.4,,567.354,20445.19,20936.2,,567.354,100.267,0.997289,99.7289,98.5284
569.358,20214.452,20608.6,,569.358,20090.264,20589.1,,569.358,100.618,1.00095,100.095,99.0913
571.363,19835.157,20315.7,,571.363,19686.427,20228.3,,571.363,100.755,1.00432,100.432,99.5421
573.368,19463.141,19968,,573.368,19315.428,19846,,573.368,100.765,1.00615,100.615,99.9007
575.375,19126.542,19622.4,,575.375,18986.807,19488.9,,575.375,100.736,1.00685,100.685,100.193
577.383,18763.305,19272.8,,577.383,18574.161,19122.9,,577.383,101.018,1.00784,100.784,100.427
579.392,18359.793,18907.5,,579.392,18171.353,18727.8,,579.392,101.037,1.0096,100.96,100.62
581.402,17930.14,18512.7,,581.402,17776.569,18343.2,,581.402,100.864,1.00924,100.924,100.751
583.413,17537.526,18103.5,,583.413,17345.495,17939.5,,583.413,101.107,1.00914,100.914,100.824
585.425,17133.512,17705.6,,585.425,16927.19,17522,,585.425,101.219,1.01048,101.048,100.892
587.439,16674.533,17289,,587.439,16478.458,17098.9,,587.439,101.19,1.01112,101.112,100.964
589.453,16212.351,16854.2,,589.453,16021.565,16657.7,,589.453,101.191,1.01179,101.179,101.019
591.468,15800.44,16412.5,,591.468,15595.936,16217,,591.468,101.311,1.01205,101.205,101.064
593.484,15383.755,15990.7,,593.484,15135.761,15776.2,,593.484,101.638,1.0136,101.36,101.14
595.501,14881.373,15550.2,,595.501,14661.348,15320.5,,595.501,101.501,1.015,101.5,101.233
597.519,14396.886,15078.1,,597.519,14208.392,14858.6,,597.519,101.327,1.01477,101.477,101.31
599.539,13931.72,14603.7,,599.539,13742.769,14406.5,,599.539,101.375,1.01369,101.369,101.358
601.559,13436.172,14128.5,,601.559,13250.632,13937.9,,601.559,101.4,1.01367,101.367,101.392
603.58,12951.602,13640.9,,603.58,12766.031,13456.8,,603.58,101.454,1.01368,101.368,101.414
605.602,12477.042,13162.5,,605.602,12339.477,12986.6,,605.602,101.115,1.01355,101.355,101.403
607.626,12008.569,12680.8,,607.626,11850.801,12526.1,,607.626,101.331,1.01235,101.235,101.36
609.65,11543.746,12207,,609.65,11365.108,12046.9,,609.65,101.572,1.01329,101.329,101.336
611.675,11087.704,11745.5,,611.675,10930.839,11580.6,,611.675,101.435,1.01424,101.424,101.345
613.702,10623.995,11286.3,,613.702,10480.543,11125.3,,613.702,101.369,1.01447,101.447,101.358
615.729,10196.892,10833.4,,615.729,10058.86,10678.5,,615.729,101.372,1.01451,101.451,101.37
617.757,9730.628,10386,,617.757,9626.625,10242.3,,617.757,101.08,1.01403,101.403,101.393
619.787,9296.985,9933.08,,619.787,9178.597,9804.92,,619.787,101.29,1.01307,101.307,101.402
621.817,8880.484,9495.63,,621.817,8739.57,9363.02,,621.817,101.612,1.01416,101.416,101.401
623.849,8499.364,9079.6,,623.849,8378.301,8944.18,,623.849,101.445,1.01514,101.514,101.411
625.881,8107.182,8678.32,,625.881,8018.036,8559.97,,625.881,101.112,1.01383,101.383,101.41
627.915,7727.723,8279.57,,627.915,7612.591,8173.49,,627.915,101.512,1.01298,101.298,101.385
629.949,7352.668,7894.56,,629.949,7253.439,7787.88,,629.949,101.368,1.0137,101.37,101.389
631.985,7004.841,7522.56,,631.985,6920.723,7425.09,,631.985,101.215,1.01313,101.313,101.388
634.021,6684.772,7172.47,,634.021,6588.839,7077.77,,634.021,101.456,1.01338,101.338,101.36
636.059,6349.039,6833.33,,636.059,6255.693,6735.87,,636.059,101.492,1.01447,101.447,101.348
638.098,6018.841,6495.05,,638.098,5940.561,6402.08,,638.098,101.318,1.01452,101.452,101.375
640.137,5689.816,6162.13,,640.137,5647.062,6082.74,,640.137,100.757,1.01305,101.305,101.379
642.178,5400.487,5838.58,,642.178,5351.739,5777.91,,642.178,100.911,1.0105,101.05,101.332
644.219,5122.654,5540.28,,644.219,5077.458,5483.36,,644.219,100.89,1.01038,101.038,101.282
646.262,4829.155,5247.61,,646.262,4811.13,5203.37,,646.262,100.375,1.0085,100.85,101.193
648.306,4569.881,4963.3,,648.306,4540.322,4928.5,,648.306,100.651,1.00706,100.706,101.054
650.35,4333.378,4697.54,,650.35,4299.885,4664.42,,650.35,100.779,1.0071,100.71,100.919
652.396,4090.519,4444.03,,652.396,4069.196,4416.55,,652.396,100.524,1.00622,100.622,100.821
654.443,3870.776,4203.42,,654.443,3845.692,4178.94,,654.443,100.652,1.00586,100.586,100.734
656.49,3652.334,3973.44,,656.49,3614.831,3945.61,,656.49,101.037,1.00705,100.705,100.674
658.539,3436.713,3751.81,,658.539,3395.884,3715.16,,658.539,101.202,1.00987,100.987,100.701
660.589,3205.566,3528.18,,660.589,3212.113,3501.78,,660.589,99.7962,1.00754,100.754,100.731
662.64,3021.917,3313.86,,662.64,3008.504,3299.99,,662.64,100.446,1.0042,100.42,100.69
664.691,2846.749,3116.76,,664.691,2825.846,3101.62,,664.691,100.74,1.00488,100.488,100.664
666.744,2683,2934.79,,666.744,2665.607,2917.05,,666.744,100.652,1.00608,100.608,100.655
668.798,2516.464,2760.31,,668.798,2508.898,2745.46,,668.798,100.302,1.00541,100.541,100.605
670.853,2364.001,2591.6,,670.853,2354.692,2582.3,,670.853,100.395,1.0036,100.36,100.505
672.909,2231.755,2436.95,,672.909,2213.672,2427.68,,672.909,100.817,1.00382,100.382,100.47
674.965,2087.517,2293.11,,674.965,2086.494,2283.43,,674.965,100.049,1.00424,100.424,100.473
677.023,1959.79,2150.55,,677.023,1964.424,2148.24,,677.023,99.7641,1.00107,100.107,100.407
679.082,1842.335,2021.96,,679.082,1847.565,2022.54,,679.082,99.7169,0.999714,99.9714,100.296
681.142,1721.787,1896.68,,681.142,1737.729,1903.79,,681.142,99.0826,0.996265,99.6265,100.158
683.203,1607.909,1774.94,,683.203,1629.665,1789.43,,683.203,98.665,0.991901,99.1901,99.9609
685.265,1511.468,1661.75,,685.265,1520.884,1678.67,,685.265,99.3809,0.989924,98.9924,99.6903
687.327,1419.701,1560.25,,687.327,1427.089,1572.32,,687.327,99.4823,0.99232,99.232,99.4741
689.391,1331.002,1463.6,,689.391,1342.555,1474.85,,689.391,99.1395,0.992374,99.2374,99.3237
691.456,1248.552,1372.61,,691.456,1266.909,1386.44,,691.456,98.551,0.990027,99.0027,99.1779
693.522,1170.763,1288.11,,693.522,1181.382,1302.62,,693.522,99.1011,0.988858,98.8858,99.0736
695.589,1085.189,1203.63,,695.589,1099.399,1217.94,,695.589,98.7075,0.988252,98.8252,99.0384
697.657,1013.479,1123.27,,697.657,1034.453,1139.18,,697.657,97.9725,0.98604,98.604,98.9684
699.726,953.573,1052,,699.726,971.408,1066.88,,699.726,98.164,0.986052,98.6052,98.8463
701.796,896.923,987.696,,701.796,917.503,1001.66,,701.796,97.757,0.986056,98.6056,98.7458
703.867,843.938,925.376,,703.867,861.064,943.417,,703.867,98.0111,0.980876,98.0876,98.6131
705.939,789.824,869.58,,705.939,804.537,885.41,,705.939,98.1712,0.982122,98.2122,98.4748
708.012,732.489,812.273,,708.012,759.323,831.585,,708.012,96.4661,0.976778,97.6778,98.3099
710.085,691.999,760.968,,710.085,719.139,783.449,,710.085,96.226,0.971304,97.1304,98.0568
712.16,645.641,712.502,,712.16,670.14,738.668,,712.16,96.3442,0.964576,96.4576,97.6926
714.236,607.552,667.997,,714.236,626.682,690.974,,714.236,96.9474,0.966747,96.6747,97.3583
716.313,568.168,625.543,,716.313,586.621,647.561,,716.313,96.8544,0.965999,96.5999,97.0845
718.391,527.697,585.329,,718.391,553.42,606.872,,718.391,95.352,0.964501,96.4501,96.7923
720.47,490.022,546.009,,720.47,515.553,569.744,,720.47,95.0478,0.958341,95.8341,96.5308
722.55,459.245,509.24,,722.55,489.289,534.375,,722.55,93.8597,0.952965,95.2965,96.2644
724.631,427.364,473.857,,724.631,456.046,503.092,,724.631,93.7107,0.94189,94.189,95.8822
726.713,403.101,443.717,,726.713,427.384,471.345,,726.713,94.3182,0.941384,94.1384,95.3848
728.796,373.095,414.926,,728.796,406.484,444.036,,728.796,91.7859,0.934442,93.4442,94.8377
730.88,354.197,387.822,,730.88,378.822,417.772,,730.88,93.4996,0.92831,92.831,94.2135
732.965,337.079,365.677,,732.965,361.79,392.676,,732.965,93.1698,0.931245,93.1245,93.7344
735.051,317.197,346.426,,735.051,344.187,371.911,,735.051,92.1583,0.931476,93.1476,93.423
737.138,292.458,324.234,,737.138,327.822,352.608,,737.138,89.2124,0.91953,91.953,93.0959
739.226,277.353,302.803,,739.226,309.223,335.6,,739.226,89.6935,0.902275,90.2275,92.4869
741.315,264.181,286.337,,741.315,291.064,317.051,,741.315,90.7639,0.903127,90.3127,91.9448
743.405,246.788,270.275,,743.405,276.402,299.691,,743.405,89.2859,0.901845,90.1845,91.444
745.496,237.251,254.036,,745.496,267.689,285.57,,745.496,88.6293,0.889574,88.9574,90.7135
747.588,224.155,242.743,,747.588,249.668,272.766,,747.588,89.7812,0.88993,88.993,90.0039
749.681,202.903,226.857,,749.681,240.994,258.037,,749.681,84.1942,0.879165,87.9165,89.4858
751.775,195.213,211.126,,751.775,237.1,248.653,,751.775,82.3336,0.849078,84.9078,88.6698
753.87,190.97,202.594,,753.87,228.541,240.406,,753.87,83.5605,0.842716,84.2716,87.5107
755.966,182.814,194.834,,755.966,222.743,232.847,,755.966,82.074,0.836747,83.6747,86.4146
758.063,179.398,186.79,,758.063,209.387,224.581,,758.063,85.6777,0.831725,83.1725,85.3155
760.161,164.952,178.987,,760.161,198.162,212.747,,760.161,83.241,0.84131,84.131,84.4033
762.26,154.051,168.703,,762.26,193.657,204.219,,762.26,79.5484,0.826092,82.6092,83.7289
764.36,147.69,159.119,,764.36,185.172,196.9,,764.36,79.7583,0.80812,80.812,83.1273
766.461,137.844,149.813,,766.461,185.015,190.823,,766.461,74.5042,0.785091,78.5091,82.2266
768.562,135.435,142.596,,768.562,177.598,186.254,,768.562,76.2593,0.765601,76.5601,81.0706
770.665,135.46,138.688,,770.665,168.205,179.624,,770.665,80.5327,0.772098,77.2098,79.7584
772.769,125.872,133.934,,772.769,160.362,171.275,,772.769,78.4924,0.781984,78.1984,78.7012
774.874,118.765,128.109,,774.874,156.442,163.531,,774.874,75.9163,0.783396,78.3396,78.0645
776.98,111.258,121.464,,776.98,157.256,159.793,,776.98,70.7496,0.760137,76.0137,77.4679
779.087,113.058,116.604,,779.087,150.343,156.351,,779.087,75.2,0.745782,74.5782,76.8985
781.195,108.764,113.594,,781.195,140.336,150.312,,781.195,77.5026,0.755721,75.5721,76.6507
783.304,100.66,108.54,,783.304,142.542,145.898,,783.304,70.6178,0.743944,74.3944,76.114
785.414,105.632,104.833,,785.414,141.88,144.517,,785.414,74.4516,0.725399,72.5399,75.0649
787.525,101.277,103.887,,787.525,138.395,142.375,,787.525,73.1797,0.729673,72.9673,74.1695
789.637,97.93,102.082,,789.637,135.958,140.064,,789.637,72.0296,0.728828,72.8828,73.8179
791.749,91.663,98.4771,,791.749,131.269,136.744,,791.749,69.8284,0.720159,72.0159,73.347
793.863,82.603,92.9698,,793.863,129.371,132.71,,793.863,63.8497,0.700549,70.0549,72.4948
795.978,84.56,88.457,,795.978,126.025,130.387,,795.978,67.0978,0.67842,67.842,71.553
798.094,88.04,87.721,,798.094,126.645,128.492,,798.094,69.5172,0.682694,68.2694,70.6218
800.211,86.695,87.9518,,800.211,120.724,126.79,,800.211,71.8126,0.69368,69.368,69.8423
802.329,76.111,84.7971,,802.329,125.017,126.006,,802.329,60.8805,0.672958,67.2958,69.0075
804.448,72.651,79.1409,,804.448,123.93,125.476,,804.448,58.6226,0.630723,63.0723,67.6484
806.567,74.529,76.7282,,806.567,122.311,123.382,,806.567,60.934,0.621875,62.1875,66.3829
808.688,72.338,75.1819,,808.688,118.367,122.129,,808.688,61.1133,0.615596,61.5596,65.2828
810.81,73.087,74.3737,,810.81,125.329,121.378,,810.81,58.3161,0.612744,61.2744,63.9187
812.933,77.804,74.7038,,812.933,123.13,122.682,,812.933,63.1885,0.608923,60.8923,62.3494
815.057,75.027,76.1714,,815.057,120.642,120.862,,815.057,62.1898,0.630236,63.0236,61.7919
817.181,67.576,74.0441,,817.181,129.685,123.09,,817.181,52.1078,0.601546,60.1546,61.5518
819.307,68.022,71.1726,,819.307,137.701,129.382,,819.307,49.3983,0.550099,55.0099,60.4914
821.434,71.395,69.7028,,821.434,141.814,134.579,,821.434,50.3441,0.517931,51.7931,58.7906
823.562,72.24,71.5113,,823.562,150.847,140.696,,823.562,47.8896,0.508266,50.8266,56.9697
825.69,77.405,74.1076,,825.69,162.962,148.914,,825.69,47.4988,0.497654,49.7654,54.7108
827.82,77.229,75.5844,,827.82,184.395,161.474,,827.82,41.8824,0.46809,46.809,51.9996
829.951,75.794,77.0668,,829.951,200.202,177.52,,829.951,37.8588,0.43413,43.413,49.4569
832.082,70.283,75.1902,,832.082,211.484,192.708,,832.082,33.2332,0.390176,39.0176,46.9702
834.215,66.59,71.6478,,834.215,217.983,204.276,,834.215,30.5483,0.350739,35.0739,44.0545
836.349,61.257,67.1997,,836.349,222.188,211.359,,836.349,27.5699,0.317942,31.7942,40.7279
838.483,62.546,64.3178,,838.483,255.234,223.382,,838.483,24.5054,0.287928,28.7928,37.1348
840.619,57.874,61.4364,,840.619,308.756,252.75,,840.619,18.7443,0.243072,24.3072,33.4131
842.755,65.335,60.8119,,842.755,374.652,296.792,,842.755,17.4388,0.204897,20.4897,29.6189
844.893,65.707,63.6375,,844.893,464.696,359.307,,844.893,14.1398,0.177112,17.7112,26.1097
847.032,72.966,65.6499,,847.032,557.035,437.958,,847.032,13.099,0.1499,14.99,22.7242
849.171,82.089,71.7286,,849.171,661.057,525.484,,849.171,12.4178,0.1365,13.65,19.6093
851.312,76.024,76.205,,851.312,756.098,619.683,,851.312,10.0548,0.122974,12.2974,16.9198
853.453,66.039,73.5279,,853.453,857.691,715.358,,853.453,7.69963,0.102785,10.2785,14.7088
855.596,61.425,68.3637,,855.596,945.06,813.531,,855.596,6.49959,0.0840333,8.40333,12.722
857.739,58.044,63.4865,,857.739,1009.281,898.409,,857.739,5.75102,0.0706655,7.06655,11.0102
859.884,60.038,61.6968,,859.884,1085.862,977.02,,859.884,5.52906,0.063148,6.3148,9.51996
862.029,57.315,60.3198,,862.029,1134.54,1048.31,,862.029,5.05183,0.0575398,5.75398,8.14839
864.175,52.276,57.1064,,864.175,1180.224,1104.7,,864.175,4.42933,0.0516939,5.16939,6.99678
866.323,46.181,54.0328,,866.323,1219.693,1154.71,,866.323,3.78628,0.0467932,4.67932,6.12749
868.471,44.899,50.1792,,868.471,1270.779,1200.42,,868.471,3.53319,0.0418015,4.18015,5.46921
870.621,42.054,46.7086,,870.621,1328.341,1250.62,,870.621,3.1659,0.0373484,3.73484,4.93184
872.771,41.835,43.8835,,872.771,1407.639,1310.18,,872.771,2.972,0.0334942,3.34942,4.43879
874.922,40.84,42.4218,,874.922,1501.233,1383.95,,874.922,2.72043,0.0306527,3.06527,3.99049
877.075,44.68,41.9697,,877.075,1615.768,1472.94,,877.075,2.76525,0.0284938,2.84938,3.59865
879.228,45.437,44.2108,,879.228,1742.694,1578.64,,879.228,2.60729,0.0280056,2.80056,3.28943
881.382,44.117,44.7955,,881.382,1861.847,1694.73,,881.382,2.36953,0.0264322,2.64322,3.04319
883.537,41.806,44.0981,,883.537,1967.351,1809.46,,883.537,2.12499,0.0243709,2.43709,2.83935
885.694,43.066,43.129,,885.694,2063.009,1916.59,,885.694,2.08753,0.022503,2.2503,2.66294
887.851,44.021,43.6166,,887.851,2128.935,2010.83,,887.851,2.06775,0.0216908,2.16908,2.51693
890.009,45.128,44.7269,,890.009,2174.289,2085.22,,890.009,2.07553,0.0214494,2.14494,2.38663
892.168,43.958,44.7077,,892.168,2167.414,2133.41,,892.168,2.02813,0.020956,2.0956,2.26678
894.328,47.343,46.1526,,894.328,2119.476,2141.3,,894.328,2.23371,0.0215536,2.15536,2.18637
896.489,46.517,47.4041,,896.489,2026.271,2108.09,,896.489,2.29569,0.0224867,2.24867,2.16106
898.651,43.362,46.4135,,898.651,1918.326,2037.89,,898.651,2.26041,0.0227752,2.27752,2.17284
900.815,48.174,45.5416,,900.815,1785.282,1942.55,,900.815,2.6984,0.0234442,2.34442,2.20314
902.979,48.103,46.9001,,902.979,1649.08,1825.48,,902.979,2.91696,0.0256919,2.56919,2.27448
905.144,48.286,47.3189,,905.144,1520.884,1700.28,,905.144,3.17486,0.02783,2.783,2.39165
907.31,45.845,47.3533,,907.31,1390.411,1573.02,,907.31,3.29723,0.0301034,3.01034,2.53413
909.477,47.564,47.2383,,909.477,1272.518,1446.96,,909.477,3.73779,0.0326465,3.26465,2.70585
911.644,49.835,46.9616,,911.644,1161.269,1326.88,,911.644,4.29143,0.0353924,3.53924,2.92567
913.813,51.902,47.8905,,913.813,1069.772,1215.71,,913.813,4.85169,0.0393929,3.93929,3.18854
915.983,53.247,50.3747,,915.983,988.66,1118.11,,915.983,5.38577,0.0450533,4.50533,3.50775
918.154,45.409,49.2884,,918.154,909.367,1029.4,,918.154,4.99347,0.0478805,4.78805,3.86095
920.326,42.753,46.0092,,920.326,840.982,947.826,,920.326,5.0837,0.0485418,4.85418,4.19323
922.499,45.097,45.8958,,922.499,785.234,877.373,,922.499,5.74313,0.0523105,5.23105,4.52223
924.673,50.258,46.4185,,924.673,726.212,813.978,,924.673,6.92057,0.0570267,5.70267,4.86923
926.847,54.874,49.5645,,926.847,673.645,755.023,,926.847,8.14583,0.0656463,6.56463,5.26703
929.023,50.581,51.6768,,929.023,616.077,698.139,,929.023,8.21018,0.0740209,7.40209,5.74692
931.2,49.469,50.9967,,931.2,561.781,640.213,,931.2,8.80574,0.0796559,7.96559,6.30997
933.377,47.72,49.2678,,933.377,520.304,588.161,,933.377,9.17156,0.083766,8.3766,6.92951
935.556,46.607,48.2427,,935.556,473.28,540.136,,935.556,9.84766,0.0893159,8.93159,7.56483
937.736,43.494,47.4578,,937.736,444.62,497.338,,937.736,9.78229,0.0954237,9.54237,8.19651
939.916,46.835,45.397,,939.916,412.505,461.97,,939.916,11.3538,0.0982682,9.82682,8.7084
942.098,47.994,47.1205,,942.098,382.026,427.176,,942.098,12.563,0.110307,11.0307,9.27341
944.28,46.88,47.3907,,944.28,357.638,396.484,,944.28,13.1082,0.119528,11.9528,9.94483
946.464,48.129,47.7344,,946.464,338.612,371.382,,946.464,14.2136,0.128532,12.8532,10.6896
948.648,50.741,49.4658,,948.648,323.405,350.131,,948.648,15.6896,0.141278,14.1278,11.5459
950.834,49.99,50.1944,,950.834,304.379,331.288,,950.834,16.4236,0.151513,15.1513,12.5529
953.02,51.511,50.5888,,953.02,291.17,312.93,,953.02,17.691,0.161662,16.1662,13.6017
955.207,57.485,52.6466,,955.207,282.78,299.394,,955.207,20.3285,0.175844,17.5844,14.6816
957.396,56.278,55.893,,957.396,274.843,289.202,,957.396,20.4764,0.193266,19.3266,15.9328
959.585,47.889,54.3121,,959.585,262.27,278.682,,959.585,18.2594,0.194889,19.4889,17.0991
961.775,47.135,50.0881,,961.775,258.151,268.507,,961.775,18.2587,0.186543,18.6543,17.9012
963.966,51.835,50.4259,,963.966,254.941,261.316,,963.966,20.3322,0.192969,19.2969,18.562
966.159,52.263,51.1638,,966.159,249.184,255.731,,966.159,20.9737,0.200069,20.0069,19.1301
968.352,55.144,53.0024,,968.352,245.245,251.243,,968.352,22.4853,0.210961,21.0961,19.5625
970.546,51.752,52.3249,,970.546,243.579,247.699,,970.546,21.2465,0.211244,21.1244,19.8743
972.741,51.997,52.218,,972.741,247.457,246.404,,972.741,21.0125,0.21192,21.192,20.2738
974.937,58.331,54.2538,,974.937,250.154,248.187,,974.937,23.318,0.218601,21.8601,20.7836
977.134,55.665,57.3277,,977.134,255.304,251.319,,977.134,21.8034,0.228107,22.8107,21.3778
979.332,54.726,55.9257,,979.332,259.999,254.524,,979.332,21.0485,0.219727,21.9727,21.7295
981.531,60.878,57.3287,,981.531,265.33,259.407,,981.531,22.9443,0.220999,22.0999,21.8638
983.731,53.756,57.4914,,983.731,271.115,263.446,,983.731,19.8277,0.218228,21.8228,22.0255
985.932,54.179,55.6799,,985.932,279.717,269.85,,985.932,19.3692,0.206337,20.6337,21.9539
988.134,58.056,57.2518,,988.134,288.592,276.398,,988.134,20.117,0.207135,20.7135,21.6152
990.336,61.659,58.5182,,990.336,304.103,287.506,,990.336,20.2757,0.203537,20.3537,21.2225
992.54,64.808,61.0034,,992.54,312.703,299.062,,992.54,20.7251,0.203982,20.3982,20.9522
994.745,71.683,65.0572,,994.745,332.031,310.388,,994.745,21.5892,0.209599,20.9599,20.6926
996.951,71.104,68.5657,,996.951,345.812,325.534,,996.951,20.5615,0.210625,21.0625,20.6644
999.157,70.069,68.5193,,999.157,349.411,336.816,,999.157,20.0535,0.203432,20.3432,20.6513
1001.365,76.306,71.0598,,1001.365,361.555,346.187,,1001.365,21.1049,0.205264,20.5264,20.6394
1003.573,82.27,75.1292,,1003.573,380.062,358.838,,1003.573,21.6465,0.209368,20.9368,20.7124
1005.783,89.051,79.6733,,1005.783,394.568,373.644,,1005.783,22.5692,0.213233,21.3233,20.8201
1007.993,92.105,84.7493,,1007.993,413.801,388.537,,1007.993,22.2583,0.218125,21.8125,20.9372
1010.205,105.067,91.3464,,1010.205,445.124,410.293,,1010.205,23.604,0.222637,22.2637,21.1962
1012.417,110.665,99.4208,,1012.417,471.173,434.633,,1012.417,23.4871,0.228746,22.8746,21.6468
1014.631,122.534,107.863,,1014.631,504.404,462.228,,1014.631,24.2928,0.233355,23.3355,22.1345
1016.845,135.04,118.431,,1016.845,547.543,494.746,,1016.845,24.6629,0.239377,23.9377,22.6489
1019.06,153.181,130.666,,1019.06,593.226,534.401,,1019.06,25.8217,0.244509,24.4509,23.1613
1021.277,168.685,146.073,,1021.277,641.091,577.026,,1021.277,26.3122,0.253148,25.3148,23.7576
1023.494,175.37,160.463,,1023.494,672.682,618.95,,1023.494,26.0703,0.25925,25.925,24.363
1025.712,181.418,168.618,,1025.712,700.636,653.562,,1025.712,25.8933,0.257998,25.7998,24.8882
1027.931,198.647,178.63,,1027.931,723.589,684.128,,1027.931,27.453,0.261105,26.1105,25.3324
1030.151,214.512,193.861,,1030.151,746.36,710.127,,1030.151,28.7411,0.272995,27.2995,25.8623
1032.372,227.103,208.22,,1032.372,762.675,733.866,,1032.372,29.7772,0.28373,28.373,26.4627
1034.594,244.693,221.711,,1034.594,772.535,752.162,,1034.594,31.674,0.294765,29.4765,27.1322
1036.817,262.192,238.531,,1036.817,784.121,766.641,,1036.817,33.4377,0.311137,31.1137,28.0311
1039.041,268.598,253.807,,1039.041,784.706,776.29,,1039.041,34.2291,0.326948,32.6948,29.243
1041.266,278.368,263.192,,1041.266,789.018,782.075,,1041.266,35.2803,0.33653,33.653,30.5276
1043.492,300.955,275.591,,1043.492,792.237,785.442,,1043.492,37.988,0.350874,35.0874,31.8299
1045.718,320.632,295.38,,1045.718,793.002,788.197,,1045.718,40.4327,0.374754,37.4754,33.3277
1047.946,332.581,311.282,,1047.946,792.401,789.724,,1047.946,41.9713,0.394166,39.4166,34.9709
1050.175,350.71,326.319,,1050.175,793.436,791.619,,1050.175,44.2014,0.412218,41.2218,36.6467
1052.405,357.112,340.728,,1052.405,792.47,791.89,,1052.405,45.0632,0.430271,43.0271,38.4288
1054.635,372.239,351.827,,1054.635,785.776,789.36,,1054.635,47.3722,0.445711,44.5711,40.303
1056.867,395.73,367.629,,1056.867,787.626,786.615,,1056.867,50.2434,0.467356,46.7356,42.1947
1059.099,407.31,385.716,,1059.099,787.384,785.817,,1059.099,51.7295,0.490847,49.0847,44.1089
1061.333,423.344,400.842,,1061.333,773.686,781.92,,1061.333,54.7178,0.512638,51.2638,46.08
1063.567,445.649,418.606,,1063.567,766.806,775.044,,1063.567,58.1176,0.540106,54.0106,48.1879
1065.802,456.59,436.047,,1065.802,755.742,768.407,,1065.802,60.4161,0.567468,56.7468,50.5163
1068.039,472.529,450.109,,1068.039,747.405,760.279,,1068.039,63.2226,0.592031,59.2031,52.9853
1070.276,493.195,466.517,,1070.276,743.794,753.164,,1070.276,66.308,0.61941,61.941,55.5154
1072.514,501.314,482.083,,1072.514,733.181,745.682,,1072.514,68.3752,0.6465,64.65,58.1605
1074.753,518.614,497.385,,1074.753,730.386,738.361,,1074.753,71.0055,0.673634,67.3634,60.855
1076.993,525.64,509.768,,1076.993,723.134,732.281,,1076.993,72.6892,0.696137,69.6137,63.4701
1079.234,533.393,520.287,,1079.234,719.154,726.24,,1079.234,74.1695,0.716413,71.6413,65.9873
1081.476,537.325,528.298,,1081.476,701.537,717.852,,1081.476,76.5925,0.735944,73.5944,68.3891
1083.719,551.166,536.423,,1083.719,693.645,707.543,,1083.719,79.4594,0.758149,75.8149,70.6568
1085.963,557.823,545.114,,1085.963,682.57,697.588,,1085.963,81.7239,0.781427,78.1427,72.8623
1088.208,562.298,552.276,,1088.208,679.494,689.411,,1088.208,82.7525,0.801085,80.1085,74.985
1090.454,564.953,557.912,,1090.454,672.417,683.648,,1090.454,84.0183,0.81608,81.608,77.0022
1092.772,573.243,563.472,,1092.772,662.701,676.076,,1092.772,86.501,0.833444,83.3444,78.9576
1094.985,575.622,568.674,,1094.985,655.712,667.492,,1094.985,87.7858,0.851956,85.1956,80.882
1097.197,579.637,575.533,,1097.197,655.176,661.371,,1097.197,88.4704,0.870212,87.0212,82.702
1099.409,570.377,575.625,,1099.409,648.729,656.29,,1099.409,87.9222,0.87709,87.709,84.3077
1101.622,575.025,573.483,,1101.622,643.735,651.077,,1101.622,89.3264,0.880822,88.0822,85.6597
1103.834,572.854,573.833,,1103.834,630.558,644.368,,1103.834,90.8487,0.890536,89.0536,86.8778
1106.047,568.954,572.417,,1106.047,617.47,634.861,,1106.047,92.1428,0.901642,90.1642,87.9507
1108.259,555.143,568.007,,1108.259,604.108,622.5,,1108.259,91.8947,0.91246,91.246,88.9016
1110.472,549.149,559.71,,1110.472,594.744,610.059,,1110.472,92.3337,0.917468,91.7468,89.6991
1112.684,545.426,553.003,,1112.684,588.197,601.125,,1112.684,92.7285,0.919946,91.9946,90.474
1114.897,540.52,548.783,,1114.897,576.102,592.421,,1114.897,93.8237,0.926339,92.6339,91.2124
1117.109,530.43,542.446,,1117.109,572.643,583.804,,1117.109,92.6284,0.929157,92.9157,91.8573
1119.321,518.794,534.203,,1119.321,558.727,574.676,,1119.321,92.8529,0.929572,92.9572,92.2714
1121.534,508.337,522.947,,1121.534,542.991,561.379,,1121.534,93.6179,0.931541,93.1541,92.5826
1123.746,500.243,513.817,,1123.746,534.618,550.187,,1123.746,93.5702,0.933894,93.3894,92.8683
1125.959,492.965,505.288,,1125.959,521.969,539.044,,1125.959,94.4433,0.937378,93.7378,93.1295
1128.171,482.777,495.738,,1128.171,512.41,527.379,,1128.171,94.2169,0.940003,94.0003,93.3354
1130.384,465.223,483.749,,1130.384,505.941,517.299,,1130.384,91.952,0.935143,93.5143,93.5014
1132.596,450.214,469.985,,1132.596,492.015,507.577,,1132.596,91.5041,0.925939,92.5939,93.4686
1134.809,444.838,458.704,,1134.809,476.541,494.825,,1134.809,93.3473,0.927003,92.7003,93.3377
1137.021,430.644,448.037,,1137.021,467.339,482.482,,1137.021,92.1481,0.928609,92.8609,93.2257
1139.233,422.083,436.402,,1139.233,447.226,469.085,,1139.233,94.378,0.930325,93.0325,93.041
1141.446,409.794,426.161,,1141.446,436.474,453.839,,1141.446,93.8874,0.939014,93.9014,92.9904
1143.658,400.231,414.215,,1143.658,427.176,442.761,,1143.658,93.6923,0.935528,93.5528,93.0926
1145.871,390.12,405.124,,1145.871,417.603,433.352,,1145.871,93.4189,0.934859,93.4859,93.2888
1148.083,374.826,393.006,,1148.083,406.664,423.006,,1148.083,92.1709,0.929079,92.9079,93.3432
1150.296,371.076,382.574,,1150.296,397.997,412.288,,1150.296,93.2359,0.927929,92.7929,93.3421
1152.508,360.687,373.499,,1152.508,378.873,399.405,,1152.508,95.2,0.935137,93.5137,93.3013
1154.721,352.115,364.786,,1154.721,371.929,386.306,,1154.721,94.6726,0.944293,94.4293,93.3903
1156.933,338.088,353.215,,1156.933,362.529,377.74,,1156.933,93.2582,0.935076,93.5076,93.444
1159.145,326.422,341.278,,1159.145,345.945,365.105,,1159.145,94.3566,0.934741,93.4741,93.4746
1161.358,316.209,331.4,,1161.358,337.269,352.556,,1161.358,93.7557,0.939991,93.9991,93.6774
1163.57,302.994,320.963,,1163.57,331.501,343.465,,1163.57,91.4006,0.934487,93.4487,93.8075
1165.783,296.324,309.505,,1165.783,320.367,334.68,,1165.783,92.4952,0.924777,92.4777,93.5753
1167.995,286.288,300.493,,1167.995,314.595,325.575,,1167.995,91.0021,0.922961,92.2961,93.2522
1170.208,280.615,291.685,,1170.208,309.912,318.454,,1170.208,90.5467,0.915943,91.5943,92.9362
1172.42,268.304,282.371,,1172.42,302.319,311.822,,1172.42,88.7486,0.905553,90.5553,92.3853
1174.633,268.083,274.055,,1174.633,293.452,303.95,,1174.633,91.355,0.901647,90.1647,91.6946
1176.845,255.405,268.175,,1176.845,287.311,296.555,,1176.845,88.895,0.904304,90.4304,91.2175
1179.057,244.999,258.522,,1179.057,269.168,287.512,,1179.057,91.0208,0.899167,89.9167,90.7554
1181.27,235.865,249.417,,1181.27,259.57,275.388,,1181.27,90.8676,0.905694,90.5694,90.4559
1183.482,227.821,240.684,,1183.482,258.334,266.759,,1183.482,88.1885,0.902249,90.2249,90.3095
1185.695,222.321,233.149,,1185.695,253.916,260.707,,1185.695,87.5569,0.894293,89.4293,90.1712
1187.907,211.002,223.976,,1187.907,251.678,256.108,,1187.907,83.8381,0.874538,87.4538,89.7146
1190.12,204.501,216.213,,1190.12,240.621,251.416,,1190.12,84.9888,0.859981,85.9981,88.9778
1192.332,198.635,207.489,,1192.332,233.382,244.964,,1192.332,85.1115,0.847019,84.7019,88.0045
1194.545,193.769,200.978,,1194.545,223.506,236.57,,1194.545,86.6952,0.849552,84.9552,86.919
1196.757,182.811,193.543,,1196.757,220.356,227.657,,1196.757,82.9617,0.850152,85.0152,86.0594
1198.969,179.853,186,,1198.969,222.843,224.322,,1198.969,80.7084,0.829166,82.9166,85.1068
1201.182,168.35,179.637,,1201.182,222.693,224.009,,1201.182,75.5973,0.801919,80.1919,84.0446
1203.394,163.573,172.839,,1203.394,227.543,224.733,,1203.394,71.8866,0.769089,76.9089,82.6195
1205.607,152.888,165.982,,1205.607,221.393,224.578,,1205.607,69.0573,0.739084,73.9084,80.7493
1207.819,145.203,156.148,,1207.819,215.152,219.749,,1207.819,67.4886,0.710573,71.0573,78.2178
1210.032,136.973,148.458,,1210.032,210.821,215.869,,1210.032,64.9712,0.687722,68.7722,75.4413
1212.244,128.652,140.241,,1212.244,206.855,212.013,,1212.244,62.1943,0.661471,66.1471,72.619
1214.456,128.424,134.691,,1214.456,197.525,207.03,,1214.456,65.0166,0.650585,65.0585,70.0313
1216.669,119.014,129.561,,1216.669,185.106,198.968,,1216.669,64.2951,0.651167,65.1167,68.043
1218.881,108.97,121.746,,1218.881,171.779,188.373,,1218.881,63.4362,0.646306,64.6306,66.5549
1221.094,107.472,114.886,,1221.094,151.726,174.676,,1221.094,70.8329,0.657711,65.7711,65.6115
1223.306,100.339,109.528,,1223.306,139.766,159.438,,1223.306,71.7907,0.686962,68.6962,65.654
1225.519,93.845,103.414,,1225.519,124.081,145.808,,1225.519,75.632,0.709248,70.9248,66.5798
1227.731,89.08,97.4435,,1227.731,117.488,132.501,,1227.731,75.8205,0.73542,73.542,68.0103
1229.944,90.226,93.8778,,1229.944,112.353,124.089,,1229.944,80.3058,0.756538,75.6538,69.8798
1232.156,83.739,90.5142,,1232.156,97.22,114.347,,1232.156,86.1335,0.791574,79.1574,72.3699
1234.368,80.345,86.6279,,1234.368,97.727,105.743,,1234.368,82.2137,0.819233,81.9233,75.0793
1236.581,78.045,82.4986,,1236.581,95.509,101.209,,1236.581,81.7148,0.815135,81.5135,77.3581
1238.793,71.93,77.5932,,1238.793,88.568,95.5963,,1238.793,81.2144,0.811676,81.1676,79.1072
1241.006,66.455,74.4052,,1241.006,82.539,89.3296,,1241.006,80.5135,0.832929,83.2929,80.6639
1242.586,59.809,70.9495,,1242.586,79.058,86.0609,,1242.586,75.6521,0.82441,82.441,