File: public_html/data/backup/plexiglas_2C01.csv
wavelength_nm,intensity,intensity_smoothed,,wavelength_nm2,intensity_i0,intensity_i0_smoothed,,wavelength_nm3,,transmission,transmission_perc,transmission_perc_smoothed
173.232,14.943,#N/A,,173.232,26.786,#N/A,,173.232,55.7866,#N/A,#N/A,#N/A
175.084,18.125,16.6922,,175.084,38.604,29.6984,,175.084,46.9511,0.562057,56.2057,#N/A
176.935,13.215,16.9059,,176.935,36.058,34.7287,,176.935,36.6493,0.486799,48.6799,#N/A
178.787,13.761,14.616,,178.787,36.057,35.7311,,178.787,38.1646,0.409056,40.9056,#N/A
180.639,16.488,15.0424,,180.639,33.693,36.2498,,180.639,48.936,0.414966,41.4966,#N/A
182.491,18.124,15.9944,,182.491,35.146,34.8517,,182.491,51.5677,0.458926,45.8926,#N/A
184.342,17.942,17.3438,,184.342,38.873,36.5629,,184.342,46.1554,0.474355,47.4355,45.7885
186.194,13.033,15.3078,,186.194,37.236,37.7408,,186.194,35.0011,0.405605,40.5605,43.9004
188.046,16.669,14.3919,,188.046,41.599,37.9195,,188.046,40.0707,0.379537,37.9537,42.8055
189.897,19.305,16.3922,,189.897,38.507,39.5136,,189.897,50.1337,0.41485,41.485,42.8286
191.749,15.396,16.5694,,191.749,31.688,37.3555,,191.749,48.5862,0.44356,44.356,42.9253
193.601,22.486,17.7367,,193.601,33.505,35.5764,,193.601,67.1124,0.498552,49.8552,42.9708
195.453,17.395,19.7152,,195.453,33.504,35.1224,,195.453,51.9192,0.56133,56.133,44.8716
197.304,18.395,18.7166,,197.304,32.14,34.8236,,197.304,57.234,0.53747,53.747,47.6162
199.156,16.94,18.1777,,199.156,31.503,33.8949,,199.156,53.7727,0.536295,53.6295,50.2676
201.008,13.849,16.6357,,201.008,34.684,33.8897,,201.008,39.9291,0.490877,49.0877,51.6616
202.86,13.394,15.4723,,202.86,34.683,34.1697,,202.86,38.6183,0.452809,45.2809,51.7087
204.711,12.121,14.132,,204.711,35.227,35.1271,,204.711,34.4083,0.402309,40.2309,49.48
206.563,17.212,15.1959,,206.563,32.136,34.3423,,206.563,53.5599,0.442485,44.2485,47.1319
208.415,18.757,17.7538,,208.415,36.68,34.8728,,208.415,51.1369,0.509101,50.9101,46.3319
210.267,20.757,19.0593,,210.267,34.316,35.8565,,210.267,60.4878,0.531544,53.1544,46.3107
212.118,14.12,18.3599,,212.118,32.679,35.2305,,212.118,43.2082,0.521137,52.1137,47.4784
213.97,18.211,16.0013,,213.97,29.859,33.8215,,213.97,60.99,0.473109,47.3109,48.3779
215.822,26.938,19.6854,,215.822,29.859,31.0561,,215.822,90.2174,0.633867,63.3867,51.5743
217.673,18.665,21.0034,,217.673,35.858,33.0981,,217.673,52.0525,0.63458,63.458,54.9663
219.525,19.665,20.0711,,219.525,29.402,33.5853,,219.525,66.8832,0.597616,59.7616,56.6088
221.377,18.392,19.5096,,221.377,33.31,32.2544,,221.377,55.2147,0.604865,60.4865,57.9778
223.229,13.119,16.7642,,223.229,37.764,34.2879,,223.229,34.7394,0.488924,48.8924,58.7133
225.08,11.21,14.2699,,225.08,38.763,35.4599,,225.08,28.9193,0.402423,40.2423,56.909
226.932,15.3,13.6458,,226.932,38.217,37.2011,,226.932,40.0345,0.366812,36.6812,51.4461
228.784,14.845,14.0402,,228.784,32.761,36.0345,,228.784,45.313,0.389633,38.9633,47.1714
230.636,12.118,14.059,,230.636,29.397,34.1797,,230.636,41.2219,0.411327,41.1327,43.3283
232.487,15.936,14.6589,,232.487,33.214,33.1807,,232.487,47.9798,0.441788,44.1788,40.8538
234.339,16.663,15.3282,,234.339,34.304,34.4358,,234.339,48.5745,0.445124,44.5124,40.5821
236.191,14.39,14.9872,,236.191,27.485,31.4748,,236.191,52.3558,0.476165,47.6165,42.09
238.043,21.481,16.1749,,238.043,35.848,30.3274,,238.043,59.9225,0.533341,53.3341,44.7205
239.894,21.026,19.2993,,239.894,44.574,35.5211,,239.894,47.171,0.543319,54.3319,47.4852
241.746,25.026,20.8235,,241.746,53.482,42.8589,,241.746,46.7933,0.485863,48.5863,49.0097
243.598,33.025,25.9685,,243.598,62.208,50.6793,,243.598,53.088,0.512409,51.2409,50.1875
245.449,33.934,30.163,,245.449,62.662,56.7962,,245.449,54.154,0.531074,53.1074,51.6304
247.301,36.843,33.3367,,247.301,66.025,60.0306,,247.301,55.8016,0.555327,55.5327,52.6494
249.153,39.752,36.1889,,249.153,75.569,66.0606,,249.153,52.6036,0.547814,54.7814,52.7703
251.005,44.933,39.0076,,251.005,79.023,71.749,,251.005,56.8607,0.543668,54.3668,53.2673
252.856,45.024,41.6246,,252.856,77.567,74.9429,,252.856,58.0453,0.555417,55.5417,54.3659
254.681,45.751,43.6699,,254.681,79.021,76.3829,,254.681,57.8973,0.571724,57.1724,55.2761
256.513,47.66,45.7128,,256.513,83.292,79.0528,,256.513,57.2204,0.578256,57.8256,55.9233
258.347,45.023,46.0789,,258.347,84.019,82.1099,,258.347,53.5867,0.561185,56.1185,56.0871
260.181,49.296,46.5661,,260.181,84.472,83.6374,,260.181,58.3578,0.556761,55.6761,56.273
262.017,48.023,48.9074,,262.017,81.108,83.7727,,262.017,59.2087,0.583811,58.3811,56.7729
263.853,46.113,48.5887,,263.853,85.197,83.7059,,263.853,54.1251,0.58047,58.047,57.1228
265.691,48.386,48.6651,,265.691,83.469,84.7439,,265.691,57.9688,0.574261,57.4261,57.0987
267.53,43.204,47.223,,267.53,78.923,83.0577,,267.53,54.742,0.568556,56.8556,57.1491
269.369,45.476,46.1081,,269.369,82.013,82.1681,,269.369,55.4497,0.561143,56.1143,57.28
271.21,49.021,46.0348,,271.21,81.648,82.5729,,271.21,60.0394,0.557505,55.7505,57.0696
273.052,47.657,47.7473,,273.052,78.374,81.0571,,273.052,60.8072,0.589057,58.9057,56.976
274.895,45.839,47.735,,274.895,79.009,79.5774,,274.895,58.0174,0.599857,59.9857,57.4186
276.739,46.929,47.8599,,276.739,83.554,81.013,,276.739,56.1661,0.590768,59.0768,57.7417
278.584,45.384,47.0499,,278.584,79.462,81.556,,278.584,57.1141,0.576903,57.6903,58.0214
280.431,44.656,46.6667,,280.431,84.461,81.9941,,280.431,52.8717,0.569147,56.9147,58.3
282.278,45.292,45.9648,,282.278,87.55,84.3235,,282.278,51.7327,0.545101,54.5101,57.9339
284.126,46.019,45.763,,284.126,87.549,85.4577,,284.126,52.5637,0.535505,53.5505,56.8184
285.976,48.655,45.8126,,285.976,89.821,87.2231,,285.976,54.1688,0.525235,52.5235,55.5476
287.826,51.746,48.474,,287.826,86.82,87.5194,,287.826,59.6015,0.553866,55.3866,54.7711
289.678,48.746,49.8988,,289.678,88.001,87.5632,,289.678,55.3926,0.56986,56.986,54.6017
291.531,49.836,49.8089,,291.531,82.999,86.9141,,291.531,60.0441,0.573082,57.3082,54.802
293.385,49.381,51.0046,,293.385,86.544,86.0818,,293.385,57.0588,0.592513,59.2513,55.6987
295.239,46.472,49.5302,,295.239,83.452,86.6223,,295.239,55.6871,0.571794,57.1794,56.5755
297.095,51.835,49.0267,,297.095,80.632,83.1922,,297.095,64.2859,0.589319,58.9319,57.4654
298.952,52.017,50.5146,,298.952,84.904,83.8708,,298.952,61.2657,0.60229,60.229,58.2094
300.81,49.835,50.3737,,300.81,81.721,82.882,,300.81,60.9819,0.607775,60.7775,58.9749
302.669,48.289,49.4642,,302.669,90.811,84.7768,,302.669,53.1753,0.583464,58.3464,59.2551
304.53,47.743,49.2839,,304.53,88.537,86.7993,,304.53,53.9243,0.567791,56.7791,59.051
306.391,44.834,48.8493,,306.391,85.536,86.9114,,306.391,52.4154,0.562058,56.2058,58.8559
308.253,44.561,46.0706,,308.253,82.171,84.5328,,308.253,54.2296,0.545002,54.5002,57.9053
310.117,48.742,46.2341,,310.117,84.624,82.3974,,310.117,57.5983,0.561111,56.1111,56.9318
311.981,47.106,47.3213,,311.981,90.623,85.0406,,311.981,51.9802,0.556455,55.6455,56.1153
313.847,42.378,46.4585,,313.847,85.258,86.5371,,313.847,49.7056,0.536863,53.6863,55.4949
315.713,41.741,43.8417,,315.713,86.621,85.0832,,315.713,48.1881,0.515281,51.5281,54.659
317.581,49.195,45.4006,,317.581,89.074,85.5077,,317.581,55.2294,0.530953,53.0953,54.065
319.45,42.922,45.9771,,319.45,86.709,86.1281,,319.45,49.5012,0.533822,53.3822,53.7713
321.319,44.195,44.1871,,321.319,85.071,85.8514,,321.319,51.9507,0.514693,51.4693,52.8864
323.19,50.376,46.7523,,323.19,89.525,86.5611,,323.19,56.2703,0.540107,54.0107,52.5445
325.062,53.921,50.1223,,325.062,82.524,87.1706,,325.062,65.3398,0.574992,57.4992,53.2459
326.935,50.557,50.7954,,326.935,88.25,86.2735,,326.935,57.2884,0.588771,58.8771,54.6027
328.809,53.648,51.4306,,328.809,91.521,87.842,,328.809,58.6182,0.58549,58.549,55.5443
330.685,53.92,53.2491,,330.685,97.156,91.0015,,330.685,55.4984,0.585145,58.5145,56.7429
332.561,49.92,52.2009,,332.561,89.337,92.2346,,332.561,55.8783,0.565957,56.5957,57.6463
334.438,51.283,50.7237,,334.438,91.608,90.0201,,334.438,55.9809,0.563471,56.3471,57.8729
336.316,50.556,51.362,,336.316,91.879,91.5528,,336.316,55.0245,0.56101,56.101,57.4622
338.196,51.555,51.6293,,338.196,87.424,90.232,,338.196,58.9712,0.572184,57.2184,57.1155
340.076,52.01,52.2516,,340.076,90.422,89.0709,,340.076,57.5192,0.586629,58.6629,57.0982
341.958,51.009,52.4561,,341.958,88.694,88.8436,,341.958,57.5112,0.590432,59.0432,57.3256
343.84,51.009,52.7814,,343.84,88.42,88.2726,,343.84,57.6894,0.597936,59.7936,57.8515
345.724,52.372,52.7703,,345.724,94.418,90.3649,,345.724,55.4682,0.583969,58.3969,58.329
347.609,53.739,53.1865,,347.609,94.789,93.2687,,347.609,56.6933,0.570251,57.0251,58.5231
349.495,53.735,54.136,,349.495,91.155,93.6846,,349.495,58.949,0.577854,57.7854,58.4333
351.382,54.32,53.847,,351.382,90.863,92.7503,,351.382,59.7823,0.580559,58.0559,58.3103
353.269,50.921,52.9866,,353.269,93.89,92.5566,,353.269,54.2347,0.572478,57.2478,58.0321
355.158,52.7,51.9665,,355.158,91.527,92.7964,,355.158,57.5786,0.560005,56.0005,57.4257
357.048,58.56,54.2483,,357.048,92.684,93.1377,,357.048,63.1824,0.582452,58.2452,57.3933
358.94,56.172,56.9561,,358.94,95.218,94.2336,,358.94,58.993,0.604414,60.4414,57.887
360.832,50.495,55.2702,,360.832,96.431,95.4034,,360.832,52.3639,0.579331,57.9331,58.0537
362.725,58.784,54.2691,,362.725,93.62,95.0673,,362.725,62.79,0.570849,57.0849,57.7879
364.619,61.728,57.371,,364.619,105.359,96.5883,,364.619,58.5883,0.593975,59.3975,58.2486
366.515,60.949,58.9769,,366.515,104.282,101.133,,366.515,58.4463,0.583161,58.3161,58.5894
368.411,56.795,58.007,,368.411,101.47,101.551,,368.411,55.9722,0.571209,57.1209,58.2158
370.308,53.75,56.5643,,370.308,97.975,100.897,,370.308,54.8609,0.560614,56.0614,57.6082
372.207,54.52,55.3021,,372.207,105.848,101.347,,372.207,51.5078,0.545671,54.5671,57.3211
374.107,60.17,57.1071,,374.107,105.608,103.386,,374.107,56.9749,0.552369,55.2369,56.6468
376.007,61.308,58.7391,,376.007,106.189,104.33,,376.007,57.7348,0.563011,56.3011,56.0983
377.909,61.063,59.6023,,377.909,105.226,104.795,,377.909,58.0303,0.568751,56.8751,55.9138
379.812,61.838,60.8807,,379.812,111.582,106.882,,379.812,55.4193,0.569605,56.9605,55.9666
381.716,63.088,62.3658,,381.716,114.291,109.895,,381.716,55.1994,0.567506,56.7506,56.1653
383.62,63.191,62.6633,,383.62,112.097,112.163,,383.62,56.3717,0.558682,55.8682,56.4626
385.526,61.526,62.9146,,385.526,116.28,112.79,,385.526,52.9119,0.557804,55.7804,56.459
387.433,68.23,64.5535,,387.433,115.424,114.342,,387.433,59.1125,0.564567,56.4567,56.3108
389.341,66.394,65.6421,,389.341,119.767,115.64,,389.341,55.436,0.56764,56.764,56.2717
391.25,78.469,69.1269,,391.25,130.241,120.838,,391.25,60.2491,0.572064,57.2064,56.2962
393.161,92.641,77.8126,,393.161,141.583,128.167,,393.161,65.4323,0.607121,60.7121,56.9266
395.072,102.343,87.2551,,395.072,162.278,140.311,,395.072,63.0665,0.621868,62.1868,58.0924
396.984,127.937,100.382,,396.984,184.699,157.71,,396.984,69.2678,0.636499,63.6499,59.4872
398.897,165.971,123.834,,398.897,227.497,182.636,,398.897,72.9552,0.678037,67.8037,61.3675
400.812,216.996,156.705,,400.812,289.932,221.57,,400.812,74.8438,0.707247,70.7247,63.8684
402.727,302.922,208.891,,402.727,375.612,277.644,,402.727,80.6476,0.752372,75.2372,66.7666
404.644,428.629,287.978,,404.644,524.35,364.121,,404.644,81.7448,0.790885,79.0885,69.9002
406.561,636.807,410.681,,406.561,752.631,501.419,,406.561,84.6108,0.819037,81.9037,73.4157
408.48,933.869,599.547,,408.48,1090.276,712.968,,408.48,85.6544,0.840918,84.0918,76.835
410.4,1358.835,873.977,,410.4,1576.714,1024.69,,410.4,86.1815,0.85292,85.292,79.8346
412.32,1984.94,1277.24,,412.32,2292.428,1484.04,,412.32,86.5868,0.860649,86.0649,82.3389
414.242,2830.793,1849.49,,414.242,3303.056,2146.55,,414.242,85.7022,0.861611,86.1611,84.0581
416.165,3970.183,2636.7,,416.165,4719.128,3089.8,,416.165,84.1296,0.853354,85.3354,85.0639
418.089,5431.757,3689.36,,418.089,6623.23,4399.73,,418.089,82.0107,0.838542,83.8542,85.3258
420.014,7226.009,5041.57,,420.014,9137.17,6168.31,,420.014,79.0837,0.817334,81.7334,84.8922
421.939,9350.835,6707.84,,421.939,12355.714,8501.15,,421.939,75.6802,0.78905,78.905,83.7789
423.866,11783.031,8690.6,,423.866,16253.351,11472.2,,423.866,72.496,0.757537,75.7537,81.9771
425.795,14545.753,10991.7,,425.795,20920.267,15116.3,,425.795,69.5295,0.727145,72.7145,79.6525
427.724,17657.561,13624.2,,427.724,26342.847,19491.6,,427.724,67.0298,0.698978,69.8978,76.9907
429.654,21174.467,16600.2,,429.654,32472.644,24593,,429.654,65.2071,0.674997,67.4997,74.1815
431.585,25359.62,20023.6,,431.585,39466.603,30450.9,,431.585,64.2559,0.657568,65.7568,71.4655
433.517,30219.28,24018.8,,433.517,47212.176,37095.6,,433.517,64.0074,0.647485,64.7485,69.0897
435.451,35636.042,28610.8,,435.451,57567.013,44916.7,,435.451,61.9036,0.636975,63.6975,67.134
437.385,41113.747,33701.1,,437.385,64000,53518.3,,437.385,64.2402,0.629712,62.9712,65.5399
439.32,45375.764,38745.9,,439.32,64000,58986.7,,439.32,70.8996,0.656859,65.6859,64.7611
441.257,47078.365,42793.5,,441.257,64000,61602.1,,441.257,73.5599,0.694675,69.4675,65.0898
443.194,45080.175,44700.4,,443.194,63787.125,62827.3,,443.194,70.6728,0.71148,71.148,66.1482
445.133,39503.465,43617.1,,445.133,62883.234,63135.6,,445.133,62.8203,0.690848,69.0848,67.1894
447.072,31578.78,39520.9,,447.072,61142.14,62615.5,,447.072,51.6481,0.631169,63.1169,67.537
449.013,23255.66,33228.6,,449.013,56984.331,60958,,449.013,40.8106,0.545107,54.5107,66.2474
450.955,16261.019,26160.9,,450.955,48943.691,56974.3,,450.955,33.2239,0.45917,45.917,62.6397
452.897,11199.505,19619.9,,452.897,40056.044,50478,,452.897,27.9596,0.388681,38.8681,57.027
454.841,7944.143,14330.1,,454.841,32726.301,43097.4,,454.841,24.2745,0.332506,33.2506,50.2506
456.786,5971.672,10452.9,,456.786,27131.96,36193.8,,456.786,22.0097,0.288805,28.8805,43.2949
458.732,4815.554,7791.53,,458.732,22827.2,30323.6,,458.732,21.0957,0.256946,25.6946,37.0496
460.679,4151.105,6054.46,,460.679,19324.818,25488.8,,460.679,21.4807,0.237534,23.7534,32.0366
462.627,3720.79,4944.43,,462.627,16380.89,21505.9,,462.627,22.7142,0.22991,22.991,28.324
464.576,3388.88,4219.75,,464.576,13857.231,18175.3,,464.576,24.4557,0.23217,23.217,25.8167
466.526,3069.312,3706.09,,466.526,11729.578,15364,,466.526,26.1673,0.24122,24.122,24.4082
468.477,2688.818,3281.07,,468.477,9995.534,13006.5,,468.477,26.9002,0.252264,25.2264,23.9359
470.429,2258.16,2863.25,,470.429,8656.172,11077,,470.429,26.0873,0.258486,25.8486,24.1171
472.382,1799.199,2431.65,,472.382,7635.598,9541.11,,472.382,23.5633,0.25486,25.486,24.5572
474.336,1355.292,1987.99,,474.336,6854.628,8338.67,,474.336,19.7719,0.238407,23.8407,24.8161
476.292,976.624,1559.66,,476.292,6260.377,7405.36,,476.292,15.6001,0.210613,21.0613,24.5029
478.248,668.113,1173.81,,478.248,5803.889,6686.65,,478.248,11.5115,0.175546,17.5546,23.3636
480.205,447.514,850.615,,480.205,5461.718,6135.55,,480.205,8.19365,0.138637,13.8637,21.3496
482.164,311.253,603.051,,482.164,5237.861,5720.76,,482.164,5.94237,0.105415,10.5415,18.6369
484.123,228.704,427.574,,484.123,5160.507,5444.05,,484.123,4.43181,0.0785397,7.85397,15.5524
486.083,180.258,309.647,,486.083,5228.466,5308.26,,486.083,3.44763,0.0583331,5.83331,12.4592
488.045,161.163,235.776,,488.045,5480.019,5324.94,,488.045,2.94092,0.0442776,4.42776,9.65901
490.007,161.713,196.018,,490.007,5891.004,5504.92,,490.007,2.74508,0.0356079,3.56079,7.35391
491.971,179.684,181.346,,491.971,6468.471,5846.97,,491.971,2.77784,0.0310154,3.10154,5.61728
493.936,232.511,191.93,,493.936,7190.779,6348.99,,493.936,3.23346,0.03023,3.023,4.42238
495.901,344.748,237.884,,495.901,8029.417,6994.04,,495.901,4.29356,0.0340124,3.40124,3.7269
497.868,547.606,340.122,,497.868,9011.373,7778.88,,497.868,6.07683,0.0437239,4.37239,3.51336
499.836,861.218,524.29,,499.836,10104.749,8696.37,,499.836,8.5229,0.0602884,6.02884,3.7967
501.804,1242.111,797.997,,501.804,11270.159,9726.87,,501.804,11.0212,0.0820404,8.20404,4.59615
503.774,1575.397,1120.39,,503.774,12464.423,10834.2,,503.774,12.6391,0.103412,10.3412,5.8672
505.745,1733.405,1408.92,,505.745,13673.219,11989.4,,505.745,12.6774,0.117514,11.7514,7.43138
507.717,1659.2,1568.13,,507.717,14872.93,13172.9,,507.717,11.1558,0.119042,11.9042,8.97798
509.69,1412.708,1558.15,,509.69,16056.998,14363.8,,509.69,8.79808,0.108478,10.8478,10.148
511.664,1100.017,1404.25,,511.664,17217.394,15546.2,,511.664,6.38899,0.0903281,9.03281,10.6486
513.639,795.132,1166.92,,513.639,18283.309,16693.9,,513.639,4.34895,0.0699011,6.99011,10.3505
515.615,558.853,908.54,,515.615,19258.438,17775.9,,515.615,2.90186,0.0511109,5.11109,9.32825
517.592,401.651,683.125,,517.592,20128.144,18776.6,,517.592,1.99547,0.0363817,3.63817,7.83511
519.57,320.185,512.379,,519.57,20880.749,19677.7,,519.57,1.5334,0.0260386,2.60386,6.19643
521.549,306.418,406.508,,521.549,21567.103,20481.6,,521.549,1.42077,0.0198475,1.98475,4.68839
523.529,329.395,358.502,,523.529,22195.328,21213.8,,523.529,1.48407,0.0168995,1.68995,3.47769
525.51,379.825,354.982,,525.51,22691.129,21857.8,,525.51,1.67389,0.0162405,1.62405,2.62141
527.493,456.99,387.104,,527.493,23058.875,22393.1,,527.493,1.98184,0.0172868,1.72868,2.10049
529.476,567.898,450.246,,529.476,23304.066,22803.7,,529.476,2.43691,0.0197444,1.97444,1.86141
531.46,762.689,556.737,,531.46,23470.938,23114.7,,531.46,3.2495,0.0240859,2.40859,1.85472
533.446,1130.526,747.428,,533.446,23511.018,23315.5,,533.446,4.80849,0.0320571,3.20571,2.06515
535.432,1866.585,1113.99,,535.432,23522.14,23420.3,,535.432,7.93544,0.0475653,4.75653,2.55783
537.419,3261.961,1826.79,,537.419,23550.666,23479.6,,537.419,13.8508,0.0778036,7.78036,3.53039
539.408,5562.173,3122.94,,539.408,23514.322,23508.5,,539.408,23.6544,0.132843,13.2843,5.36662
541.397,8670.426,5161.87,,541.397,23421.676,23487.5,,541.397,37.0188,0.219771,21.9771,8.61095
543.388,12153.945,7875.73,,543.388,23308.611,23427,,543.388,52.1436,0.336181,33.6181,13.7996
545.379,15476.605,10972.9,,545.379,23191.606,23337.7,,545.379,66.7336,0.47018,47.018,21.2432
547.372,18212.081,14054.6,,547.372,23067.082,23233,,547.372,78.9527,0.604941,60.4941,30.8533
549.365,20159.651,16750.1,,549.365,22873.453,23102.2,,549.365,88.1356,0.725044,72.5044,42.0719
551.36,21456.936,18887.6,,551.36,22657.524,22929.7,,551.36,94.7012,0.823717,82.3717,53.9818
553.356,22194.1,20437,,553.356,22458.012,22738.3,,553.356,98.8249,0.898792,89.8792,65.5454
555.352,22609.922,21473.4,,555.352,22260.207,22544.8,,555.352,101.571,0.952477,95.2477,75.8648
557.35,22785.757,22121.6,,557.35,21989.908,22330.1,,557.35,103.619,0.990665,99.0665,84.4154
559.349,22817.701,22484.2,,559.349,21709.137,22080.9,,559.349,105.106,1.01826,101.826,91.0915
561.348,22781.255,22653.2,,561.348,21446.354,21819.4,,561.348,106.224,1.03821,103.821,96.0798
563.349,22737.041,22710.1,,563.349,21149.204,21549.7,,563.349,107.508,1.05385,105.385,99.7047
565.351,22637.244,22701.9,,565.351,20809.542,21256.4,,565.351,108.783,1.068,106.8,102.366
567.354,22488.304,22629.1,,567.354,20445.19,20936.2,,567.354,109.993,1.08086,108.086,104.397
569.358,22304.784,22509.3,,569.358,20090.264,20589.1,,569.358,111.023,1.09326,109.326,106.035
571.363,22038.61,22337.6,,571.363,19686.427,20228.3,,571.363,111.948,1.10428,110.428,107.434
573.368,21775.95,22111.8,,573.368,19315.428,19846,,573.368,112.739,1.11417,111.417,108.689
575.375,21456.847,21862.4,,575.375,18986.807,19488.9,,575.375,113.009,1.12179,112.179,109.822
577.383,21015.137,21541.5,,577.383,18574.161,19122.9,,577.383,113.142,1.12648,112.648,110.801
579.392,20504.167,21144.6,,579.392,18171.353,18727.8,,579.392,112.838,1.12905,112.905,111.6
581.402,19949.44,20669.6,,581.402,17776.569,18343.2,,581.402,112.223,1.12683,112.683,112.159
583.413,19393.546,20157.2,,583.413,17345.495,17939.5,,583.413,111.807,1.12362,112.362,112.461
585.425,18809.009,19609.5,,585.425,16927.19,17522,,585.425,111.117,1.11914,111.914,112.515
587.439,18183.639,19036.6,,587.439,16478.458,17098.9,,587.439,110.348,1.11332,111.332,112.345
589.453,17538.193,18425.5,,589.453,16021.565,16657.7,,589.453,109.466,1.10612,110.612,111.974
591.468,16914.088,17801.7,,591.468,15595.936,16217,,591.468,108.452,1.09772,109.772,111.441
593.484,16357.756,17193.7,,593.484,15135.761,15776.2,,593.484,108.074,1.08985,108.985,110.805
595.501,15773.506,16609.6,,595.501,14661.348,15320.5,,595.501,107.586,1.08415,108.415,110.119
597.519,15178.389,16016.2,,597.519,14208.392,14858.6,,597.519,106.827,1.07791,107.791,109.418
599.539,14625.087,15438.3,,599.539,13742.769,14406.5,,599.539,106.42,1.07162,107.162,108.718
601.559,14041.756,14868,,601.559,13250.632,13937.9,,601.559,105.97,1.06673,106.673,108.065
603.58,13504.559,14298.7,,603.58,12766.031,13456.8,,603.58,105.785,1.06256,106.256,107.491
605.602,13011.794,13759,,605.602,12339.477,12986.6,,605.602,105.449,1.05948,105.948,106.984
607.626,12496.943,13234,,607.626,11850.801,12526.1,,607.626,105.452,1.05652,105.652,106.526
609.65,12028.75,12727.2,,609.65,11365.108,12046.9,,609.65,105.839,1.05647,105.647,106.172
611.675,11541.514,12237,,611.675,10930.839,11580.6,,611.675,105.587,1.05668,105.668,105.932
613.702,11069.54,11755.4,,613.702,10480.543,11125.3,,613.702,105.62,1.05664,105.664,105.775
615.729,10626.658,11286.8,,615.729,10058.86,10678.5,,615.729,105.645,1.05697,105.697,105.69
617.757,10185.219,10831.5,,617.757,9626.625,10242.3,,617.757,105.803,1.05753,105.753,105.676
619.787,9729.205,10376.2,,619.787,9178.597,9804.92,,619.787,105.999,1.05826,105.826,105.709
621.817,9295.764,9924.63,,621.817,8739.57,9363.02,,621.817,106.364,1.05998,105.998,105.759
623.849,8921.451,9498.45,,623.849,8378.301,8944.18,,623.849,106.483,1.06197,106.197,105.852
625.881,8517.975,9094.93,,625.881,8018.036,8559.97,,625.881,106.235,1.0625,106.25,105.962
627.915,8116.127,8688.69,,627.915,7612.591,8173.49,,627.915,106.615,1.06303,106.303,106.069
629.949,7713.596,8285.75,,629.949,7253.439,7787.88,,629.949,106.344,1.06393,106.393,106.183
631.985,7353.469,7894.67,,631.985,6920.723,7425.09,,631.985,106.253,1.06324,106.324,106.27
634.021,6994.835,7521.84,,634.021,6588.839,7077.77,,634.021,106.162,1.06274,106.274,106.308
636.059,6640.701,7156.95,,636.059,6255.693,6735.87,,636.059,106.155,1.06251,106.251,106.311
638.098,6270.931,6793.69,,638.098,5940.561,6402.08,,638.098,105.561,1.06117,106.117,106.295
640.137,5934.736,6435.07,,640.137,5647.062,6082.74,,640.137,105.094,1.05792,105.792,106.204
642.178,5617.676,6091.49,,642.178,5351.739,5777.91,,642.178,104.969,1.05427,105.427,106.043
644.219,5327.288,5770.11,,644.219,5077.458,5483.36,,644.219,104.92,1.05229,105.229,105.848
646.262,5019.834,5460.3,,646.262,4811.13,5203.37,,646.262,104.338,1.04938,104.938,105.613
648.306,4733.201,5156.61,,648.306,4540.322,4928.5,,648.306,104.248,1.04628,104.628,105.328
650.35,4461.037,4865.57,,650.35,4299.885,4664.42,,650.35,103.748,1.04312,104.312,105.03
652.396,4219.252,4592.74,,652.396,4069.196,4416.55,,652.396,103.688,1.0399,103.99,104.738
654.443,3974.826,4334.71,,654.443,3845.692,4178.94,,654.443,103.358,1.03727,103.727,104.449
656.49,3746.603,4087,,656.49,3614.831,3945.61,,656.49,103.645,1.03583,103.583,104.164
658.539,3521.261,3852.32,,658.539,3395.884,3715.16,,658.539,103.692,1.03692,103.692,103.949
660.589,3292.312,3618.83,,660.589,3212.113,3501.78,,660.589,102.497,1.03342,103.342,103.756
662.64,3101.674,3397.09,,662.64,3008.504,3299.99,,662.64,103.097,1.02942,102.942,103.54
664.691,2924.875,3198.02,,664.691,2825.846,3101.62,,664.691,103.504,1.03108,103.108,103.383
666.744,2738.587,3008.24,,666.744,2665.607,2917.05,,666.744,102.738,1.03126,103.126,103.289
668.798,2566.579,2823.99,,668.798,2508.898,2745.46,,668.798,102.299,1.02861,102.861,103.16
670.853,2410.347,2650.64,,670.853,2354.692,2582.3,,670.853,102.364,1.02647,102.647,102.99
672.909,2250.995,2485.5,,672.909,2213.672,2427.68,,672.909,101.686,1.02382,102.382,102.869
674.965,2117.626,2329.83,,674.965,2086.494,2283.43,,674.965,101.492,1.02032,102.032,102.702
677.023,1995.708,2189.36,,677.023,1964.424,2148.24,,677.023,101.593,1.01914,101.914,102.47
679.082,1874.5,2057.31,,679.082,1847.565,2022.54,,679.082,101.458,1.01719,101.719,102.234
681.142,1763.349,1933.59,,681.142,1737.729,1903.79,,681.142,101.474,1.01565,101.565,102.015
683.203,1642.465,1815.71,,683.203,1629.665,1789.43,,683.203,100.785,1.01469,101.469,101.819
685.265,1538.301,1697.58,,685.265,1520.884,1678.67,,685.265,101.145,1.01127,101.127,101.628
687.327,1448.119,1591.82,,687.327,1427.089,1572.32,,687.327,101.474,1.0124,101.24,101.479
689.391,1357.788,1492.94,,689.391,1342.555,1474.85,,689.391,101.135,1.01227,101.227,101.372
691.456,1273.845,1400.9,,691.456,1266.909,1386.44,,691.456,100.547,1.01043,101.043,101.269
693.522,1190.125,1314.16,,693.522,1181.382,1302.62,,693.522,100.74,1.00885,100.885,101.146
695.589,1113.53,1229.56,,695.589,1099.399,1217.94,,695.589,101.285,1.00954,100.954,101.077
697.657,1038.761,1149.68,,697.657,1034.453,1139.18,,697.657,100.416,1.00922,100.922,101.048
699.726,965.45,1072.47,,699.726,971.408,1066.88,,699.726,99.3867,1.00524,100.524,100.938
701.796,906.125,1001.01,,701.796,917.503,1001.66,,701.796,98.7599,0.999351,99.9351,100.74
703.867,846.104,936.206,,703.867,861.064,943.417,,703.867,98.2626,0.992357,99.2357,100.455
705.939,794.757,876.005,,705.939,804.537,885.41,,705.939,98.7844,0.989379,98.9379,100.09
708.012,747.263,822.258,,708.012,759.323,831.585,,708.012,98.4117,0.988785,98.8785,99.6893
710.085,700.699,771.741,,710.085,719.139,783.449,,710.085,97.4358,0.985055,98.5055,99.2728
712.16,655.415,722.347,,712.16,670.14,738.668,,712.16,97.8027,0.977904,97.7904,98.8348
714.236,613.636,676.418,,714.236,626.682,690.974,,714.236,97.9182,0.978934,97.8934,98.4945
716.313,566.749,630.342,,716.313,586.621,647.561,,716.313,96.6125,0.97341,97.341,98.2189
718.391,525.552,585.577,,718.391,553.42,606.872,,718.391,94.9644,0.964909,96.4909,97.8115
720.47,490.524,544.976,,720.47,515.553,569.744,,720.47,95.1452,0.956528,95.6528,97.2736
722.55,462.565,509.042,,722.55,489.289,534.375,,722.55,94.5382,0.952594,95.2594,96.7444
724.631,437.216,479.089,,724.631,456.046,503.092,,724.631,95.871,0.952288,95.2288,96.2511
726.713,404.51,448.508,,726.713,427.384,471.345,,726.713,94.6479,0.95155,95.155,95.7758
728.796,383.377,419.832,,728.796,406.484,444.036,,728.796,94.3154,0.94549,94.549,95.3482
730.88,356.501,393.983,,730.88,378.822,417.772,,730.88,94.1078,0.943059,94.3059,95.0268
732.965,324.993,365.828,,732.965,361.79,392.676,,732.965,89.8292,0.93163,93.163,94.68
735.051,310.266,340.503,,735.051,344.187,371.911,,735.051,90.1446,0.91555,91.555,94.0731
737.138,290.673,319.882,,737.138,327.822,352.608,,737.138,88.6679,0.907188,90.7188,93.2611
739.226,272.096,300.203,,739.226,309.223,335.6,,739.226,87.9935,0.894527,89.4527,92.2935
741.315,262.311,282.913,,741.315,291.064,317.051,,741.315,90.1214,0.892328,89.2328,91.2953
743.405,248.763,268.599,,743.405,276.402,299.691,,743.405,90.0004,0.896253,89.6253,90.4511
745.496,234.846,254.317,,745.496,267.689,285.57,,745.496,87.7309,0.890558,89.0558,89.8577
747.588,225.431,241.59,,747.588,249.668,272.766,,747.588,90.2923,0.885704,88.5704,89.378
749.681,212.193,229.373,,749.681,240.994,258.037,,749.681,88.0491,0.888917,88.8917,89.1345
751.775,204.26,218.145,,751.775,237.1,248.653,,751.775,86.1493,0.877307,87.7307,88.9424
753.87,195.967,208.999,,753.87,228.541,240.406,,753.87,85.747,0.869358,86.9358,88.5065
755.966,180.947,198.256,,755.966,222.743,232.847,,755.966,81.2358,0.851441,85.1441,87.8063
758.063,170.934,187.284,,758.063,209.387,224.581,,758.063,81.6354,0.833924,83.3924,86.8251
760.161,163.821,178.298,,760.161,198.162,212.747,,760.161,82.6702,0.838073,83.8073,85.8285
762.26,149.558,166.875,,762.26,193.657,204.219,,762.26,77.2283,0.817141,81.7141,84.6746
764.36,149.657,157.259,,764.36,185.172,196.9,,764.36,80.8205,0.798672,79.8672,83.3234
766.461,143.904,152.708,,766.461,185.015,190.823,,766.461,77.7796,0.800258,80.0258,82.1525
768.562,132.415,145.416,,768.562,177.598,186.254,,768.562,74.5588,0.780737,78.0737,81.1372
770.665,132.353,138.79,,770.665,168.205,179.624,,770.665,78.6855,0.772666,77.2666,79.9677
772.769,134.321,136.748,,772.769,160.362,171.275,,772.769,83.7611,0.798413,79.8413,79.1724
774.874,120.764,133.026,,774.874,156.442,163.531,,774.874,77.1941,0.813463,81.3463,79.2555
776.98,109.796,123.215,,776.98,157.256,159.793,,776.98,69.8199,0.771094,77.1094,78.956
779.087,106.41,114.052,,779.087,150.343,156.351,,779.087,70.7782,0.72946,72.946,77.954
781.195,106.954,110.534,,781.195,140.336,150.312,,781.195,76.2128,0.735365,73.5365,77.15
783.304,105.419,109.349,,783.304,142.542,145.898,,783.304,73.9564,0.74949,74.949,76.4849
785.414,100.272,105.907,,785.414,141.88,144.517,,785.414,70.6738,0.732831,73.2831,75.1716
787.525,97.749,101.967,,787.525,138.395,142.375,,787.525,70.6304,0.716185,71.6185,73.6757
789.637,98.245,99.4916,,789.637,135.958,140.064,,789.637,72.2613,0.710331,71.0331,72.9202
791.749,97.665,98.602,,791.749,131.269,136.744,,791.749,74.4007,0.721071,72.1071,72.6891
793.863,88.339,96.4951,,793.863,129.371,132.71,,793.863,68.2835,0.727113,72.7113,72.425
795.978,85.167,91.833,,795.978,126.025,130.387,,795.978,67.5794,0.704312,70.4312,71.8002
798.094,85.895,88.5998,,798.094,126.645,128.492,,798.094,67.8234,0.689534,68.9534,71.202
800.211,82.437,85.8338,,800.211,120.724,126.79,,800.211,68.2855,0.676975,67.6975,70.5974
802.329,83.686,84.1323,,802.329,125.017,126.006,,802.329,66.9397,0.667682,66.7682,69.7663
804.448,83.854,84.3518,,804.448,123.93,125.476,,804.448,67.6624,0.672252,67.2252,68.6808
806.567,81.795,82.8653,,806.567,122.311,123.382,,806.567,66.8746,0.671615,67.1615,67.8398
808.688,85.918,82.4262,,808.688,118.367,122.129,,808.688,72.5861,0.674912,67.4912,67.4372
810.81,87.573,84.4754,,810.81,125.329,121.378,,810.81,69.8745,0.695969,69.5969,67.5892
812.933,85.082,84.6587,,812.933,123.13,122.682,,812.933,69.0993,0.690068,69.0068,68.005
815.057,85.196,84.1036,,815.057,120.642,120.862,,815.057,70.6189,0.695867,69.5867,68.4679
817.181,86.453,85.6142,,817.181,129.685,123.09,,817.181,66.6638,0.695544,69.5544,68.9134
819.307,91.925,86.602,,819.307,137.701,129.382,,819.307,66.757,0.669354,66.9354,68.9952
821.434,108.417,93.7896,,821.434,141.814,134.579,,821.434,76.4501,0.696909,69.6909,68.9492
823.562,114.763,104.075,,823.562,150.847,140.696,,823.562,76.0791,0.739714,73.9714,69.5732
825.69,125.729,112.541,,825.69,162.962,148.914,,825.69,77.1523,0.755747,75.5747,70.6647
827.82,136.309,121.414,,827.82,184.395,161.474,,827.82,73.9223,0.75191,75.191,71.7503
829.951,151.796,132.494,,829.951,200.202,177.52,,829.951,75.8214,0.746358,74.6358,72.9455
832.082,161.803,144.887,,832.082,211.484,192.708,,832.082,76.5084,0.751846,75.1846,74.379
834.215,167.042,154.565,,834.215,217.983,204.276,,834.215,76.6307,0.756644,75.6644,75.1177
836.349,176.452,163.606,,836.349,222.188,211.359,,836.349,79.4156,0.774069,77.4069,75.5611
838.483,188.898,173.232,,838.483,255.234,223.382,,838.483,74.0097,0.775498,77.5498,75.978
840.619,232.146,191.045,,840.619,308.756,252.75,,840.619,75.1875,0.755868,75.5868,76.1911
842.755,280.78,224.988,,842.755,374.652,296.792,,842.755,74.9442,0.758067,75.8067,76.3401
844.893,337.631,268.001,,844.893,464.696,359.307,,844.893,72.6563,0.745882,74.5882,76.246
847.032,405.948,321.864,,847.032,557.035,437.958,,847.032,72.8766,0.73492,73.492,75.7559
849.171,468.27,381.542,,849.171,661.057,525.484,,849.171,70.8366,0.726077,72.6077,74.8277
851.312,531.554,443.914,,851.312,756.098,619.683,,851.312,70.3023,0.716356,71.6356,73.9448
853.453,589.413,505.326,,853.453,857.691,715.358,,853.453,68.7209,0.706397,70.6397,73.0386
855.596,636.839,561.003,,855.596,945.06,813.531,,855.596,67.3861,0.68959,68.959,71.9021
857.739,677.492,609.855,,857.739,1009.281,898.409,,857.739,67.1262,0.678817,67.8817,70.7887
859.884,704.416,652.039,,859.884,1085.862,977.02,,859.884,64.8716,0.667375,66.7375,69.644
862.029,731.764,686.791,,862.029,1134.54,1048.31,,862.029,64.4987,0.655138,65.5138,68.4577
864.175,754.85,716.766,,864.175,1180.224,1104.7,,864.175,63.9582,0.648832,64.8832,67.3003
866.323,783.167,743.885,,866.323,1219.693,1154.71,,866.323,64.2102,0.644216,64.4216,66.2892
868.471,798.44,768.335,,868.471,1270.779,1200.42,,868.471,62.8308,0.640057,64.0057,65.4799
870.621,829.1,790.608,,870.621,1328.341,1250.62,,870.621,62.4162,0.632174,63.2174,64.714
872.771,876.796,822.569,,872.771,1407.639,1310.18,,872.771,62.2884,0.627829,62.7829,64.0917
874.922,930.488,863.782,,874.922,1501.233,1383.95,,874.922,61.9816,0.624141,62.4141,63.5726
877.075,995.027,914.625,,877.075,1615.768,1472.94,,877.075,61.5823,0.620952,62.0952,63.1067
879.228,1046.153,970.295,,879.228,1742.694,1578.64,,879.228,60.0308,0.61464,61.464,62.6132
881.382,1100.76,1023.77,,881.382,1861.847,1694.73,,881.382,59.1219,0.604089,60.4089,62.0568
883.537,1144.957,1076.27,,883.537,1967.351,1809.46,,883.537,58.1979,0.594801,59.4801,61.4405
885.694,1157.376,1116.42,,885.694,2063.009,1916.59,,885.694,56.1014,0.582503,58.2503,60.689
887.851,1136.711,1133.88,,887.851,2128.935,2010.83,,887.851,53.3934,0.563884,56.3884,59.6822
890.009,1099.396,1125.85,,890.009,2174.289,2085.22,,890.009,50.5635,0.53992,53.992,58.3232
892.168,1043.131,1098.81,,892.168,2167.414,2133.41,,892.168,48.1279,0.515051,51.5051,56.6578
894.328,959.396,1049.47,,894.328,2119.476,2141.3,,894.328,45.2657,0.49011,49.011,54.714
896.489,845.263,973.176,,896.489,2026.271,2108.09,,896.489,41.7152,0.461639,46.1639,52.4435
898.651,735.95,877.374,,898.651,1918.326,2037.89,,898.651,38.3642,0.43053,43.053,49.8808
900.815,639.131,779.174,,900.815,1785.282,1942.55,,900.815,35.8,0.401108,40.1108,47.1483
902.979,549.307,681.856,,902.979,1649.08,1825.48,,902.979,33.3099,0.373521,37.3521,44.3521
905.144,475.899,593.101,,905.144,1520.884,1700.28,,905.144,31.2909,0.348825,34.8825,41.5402
907.31,404.83,513.214,,907.31,1390.411,1573.02,,907.31,29.1159,0.32626,32.626,38.7869
909.477,348.105,440.466,,909.477,1272.518,1446.96,,909.477,27.3556,0.304407,30.4407,36.1777
911.644,308.696,382.432,,911.644,1161.269,1326.88,,911.644,26.5826,0.288218,28.8218,33.8078
913.813,269.206,333.518,,913.813,1069.772,1215.71,,913.813,25.1648,0.274339,27.4339,31.7132
915.983,241.2,292.032,,915.983,988.66,1118.11,,915.983,24.3967,0.261183,26.1183,29.8589
918.154,222.104,261.198,,918.154,909.367,1029.4,,918.154,24.424,0.253737,25.3737,28.2761
920.326,205.826,236.753,,920.326,840.982,947.826,,920.326,24.4745,0.249785,24.9785,27.0272
922.499,196.184,217.461,,922.499,785.234,877.373,,922.499,24.9841,0.247855,24.7855,26.1031
924.673,187.36,203.313,,924.673,726.212,813.978,,924.673,25.7996,0.249777,24.9777,25.4718
926.847,182.899,194.587,,926.847,673.645,755.023,,926.847,27.1507,0.257724,25.7724,25.2187
929.023,171.62,184.968,,929.023,616.077,698.139,,929.023,27.8569,0.264945,26.4945,25.3239
931.2,164.705,176.355,,931.2,561.781,640.213,,931.2,29.3184,0.275462,27.5462,25.7124
933.377,156.972,168.714,,933.377,520.304,588.161,,933.377,30.1693,0.28685,28.685,26.3756
935.556,149.511,161.615,,935.556,473.28,540.136,,935.556,31.5904,0.299213,29.9213,27.2603
937.736,142.232,152.511,,937.736,444.62,497.338,,937.736,31.9896,0.306654,30.6654,28.245
939.916,140.771,146.134,,939.916,412.505,461.97,,939.916,34.1259,0.316328,31.6328,29.2284
942.098,131.946,141.54,,942.098,382.026,427.176,,942.098,34.5385,0.331339,33.1339,30.3248
944.28,119.031,133.193,,944.28,357.638,396.484,,944.28,33.2825,0.335935,33.5935,31.3601
946.464,107.206,122.878,,946.464,338.612,371.382,,946.464,31.6604,0.330867,33.0867,32.1395
948.648,97.472,112.492,,948.648,323.405,350.131,,948.648,30.1393,0.321285,32.1285,32.5436
950.834,87.374,102.544,,950.834,304.379,331.288,,950.834,28.7057,0.309532,30.9532,32.608
953.02,80.458,93.0657,,953.02,291.17,312.93,,953.02,27.6327,0.297401,29.7401,32.1889
955.207,77.087,86.3637,,955.207,282.78,299.394,,955.207,27.2604,0.288461,28.8461,31.3668
957.396,67.716,79.5776,,957.396,274.843,289.202,,957.396,24.6381,0.275163,27.5163,30.327
959.585,63.254,71.8839,,959.585,262.27,278.682,,959.585,24.1179,0.257942,25.7942,29.1113
961.775,54.519,65.7906,,961.775,258.151,268.507,,961.775,21.119,0.245023,24.5023,27.836
963.966,54.966,59.3874,,963.966,254.941,261.316,,963.966,21.5603,0.227262,22.7262,26.4583
966.159,58.867,58.5351,,966.159,249.184,255.731,,966.159,23.6239,0.228893,22.8893,25.1986
968.352,59.223,59.1355,,968.352,245.245,251.243,,968.352,24.1485,0.235372,23.5372,24.2347
970.546,56.76,58.935,,970.546,243.579,247.699,,970.546,23.3025,0.23793,23.793,23.65
972.741,48.298,55.696,,972.741,247.457,246.404,,972.741,19.5177,0.226035,22.6035,23.2084
974.937,50.744,52.2852,,974.937,250.154,248.187,,974.937,20.2851,0.210669,21.0669,22.7833
977.134,51.372,52.1046,,977.134,255.304,251.319,,977.134,20.1219,0.207325,20.7325,22.4405
979.332,53.182,51.1502,,979.332,259.999,254.524,,979.332,20.4547,0.200964,20.0964,21.9118
981.531,54.264,52.3275,,981.531,265.33,259.407,,981.531,20.4515,0.20172,20.172,21.2688
983.731,54.073,53.2688,,983.731,271.115,263.446,,983.731,19.9447,0.2022,20.22,20.6875
985.932,58.064,54.5841,,985.932,279.717,269.85,,985.932,20.7581,0.202276,20.2276,20.3894
988.134,60.782,57.3583,,988.134,288.592,276.398,,988.134,21.0616,0.20752,20.752,20.347
990.336,58.046,58.499,,990.336,304.103,287.506,,990.336,19.0876,0.203471,20.3471,20.3753
992.54,55.127,57.2087,,992.54,312.703,299.062,,992.54,17.6292,0.191294,19.1294,20.2409
994.745,60.754,57.7801,,994.745,332.031,310.388,,994.745,18.2977,0.186154,18.6154,19.9345
996.951,64.562,60.9901,,996.951,345.812,325.534,,996.951,18.6697,0.187354,18.7354,19.6576
999.157,59.916,62.0923,,999.157,349.411,336.816,,999.157,17.1477,0.18435,18.435,19.292
1001.365,69.542,63.4558,,1001.365,361.555,346.187,,1001.365,19.2341,0.183299,18.3299,18.8265
1003.573,73.35,68.1438,,1003.573,380.062,358.838,,1003.573,19.2995,0.189901,18.9901,18.6385
1005.783,82.248,73.1082,,1005.783,394.568,373.644,,1005.783,20.8451,0.195663,19.5663,18.7412
1007.993,92.42,80.4217,,1007.993,413.801,388.537,,1007.993,22.3344,0.206986,20.6986,19.0514
1010.205,102.318,88.8091,,1010.205,445.124,410.293,,1010.205,22.9864,0.216453,21.6453,19.5696
1012.417,101.125,96.3497,,1012.417,471.173,434.633,,1012.417,21.4624,0.221681,22.1681,20.2976
1014.631,105.841,99.9495,,1014.631,504.404,462.228,,1014.631,20.9834,0.216234,21.6234,20.8983
1016.845,111.466,105.174,,1016.845,547.543,494.746,,1016.845,20.3575,0.212582,21.2582,21.3112
1019.06,118.272,109.97,,1019.06,593.226,534.401,,1019.06,19.9371,0.205783,20.5783,21.4594
1021.277,111.988,113.415,,1021.277,641.091,577.026,,1021.277,17.4683,0.19655,19.655,21.2369
1023.494,97.067,108.183,,1023.494,672.682,618.95,,1023.494,14.4298,0.174785,17.4785,20.5087
1025.712,100.054,103.047,,1025.712,700.636,653.562,,1025.712,14.2805,0.157669,15.7669,19.4156
1027.931,91.951,100.39,,1027.931,723.589,684.128,,1027.931,12.7076,0.146741,14.6741,18.1895
1030.151,82.211,92.9978,,1030.151,746.36,710.127,,1030.151,11.0149,0.130959,13.0959,16.7846
1032.372,80.107,86.4357,,1032.372,762.675,733.866,,1032.372,10.5034,0.117781,11.7781,15.2444
1034.594,69.549,80.6058,,1034.594,772.535,752.162,,1034.594,9.0027,0.107166,10.7166,13.7773
1036.817,65.899,73.129,,1036.817,784.121,766.641,,1036.817,8.40419,0.0953889,9.53889,12.4899
1039.041,65.431,68.806,,1039.041,784.706,776.29,,1039.041,8.33828,0.0886345,8.86345,11.3051
1041.266,68.508,68.7984,,1041.266,789.018,782.075,,1041.266,8.68269,0.087969,8.7969,10.3192
1043.492,64.039,68.181,,1043.492,792.237,785.442,,1043.492,8.08331,0.0868059,8.68059,9.61287
1045.718,62.116,65.0275,,1045.718,793.002,788.197,,1045.718,7.83302,0.0825016,8.25016,9.04842
1047.946,60.374,63.6487,,1047.946,792.401,789.724,,1047.946,7.61912,0.0805961,8.05961,8.65212
1050.175,58.995,61.467,,1050.175,793.436,791.619,,1050.175,7.43538,0.0776472,7.76472,8.38889
1052.405,64.253,60.7595,,1052.405,792.47,791.89,,1052.405,8.10794,0.0767272,7.67272,8.17456
1054.635,67.964,62.9076,,1054.635,785.776,789.36,,1054.635,8.64928,0.0796944,7.96944,8.00431
1056.867,70.585,66.3575,,1056.867,787.626,786.615,,1056.867,8.96174,0.0843583,8.43583,7.97316
1059.099,71.842,67.9821,,1059.099,787.384,785.817,,1059.099,9.12414,0.0865114,8.65114,8.0594
1061.333,69.825,69.4352,,1061.333,773.686,781.92,,1061.333,9.02498,0.0888009,8.88009,8.23094
1063.567,71.9,70.0534,,1063.567,766.806,775.044,,1063.567,9.37656,0.0903864,9.03864,8.47347
1065.802,77.246,72.759,,1065.802,755.742,768.407,,1065.802,10.2212,0.0946881,9.46881,8.75932
1068.039,80.593,74.7872,,1068.039,747.405,760.279,,1068.039,10.783,0.0983682,9.83682,9.05277
1070.276,91.757,79.6962,,1070.276,743.794,753.164,,1070.276,12.3363,0.105815,10.5815,9.39421
1072.514,97.921,87.293,,1072.514,733.181,745.682,,1072.514,13.3556,0.117065,11.7065,9.88973
1074.753,112.176,95.5581,,1074.753,730.386,738.361,,1074.753,15.3585,0.129419,12.9419,10.5759
1076.993,131.157,108.028,,1076.993,723.134,732.281,,1076.993,18.1373,0.147522,14.7522,11.5287
1079.234,156.047,126.064,,1079.234,719.154,726.24,,1079.234,21.6987,0.173584,17.3584,12.8435
1081.476,184.21,148.846,,1081.476,701.537,717.852,,1081.476,26.2581,0.207349,20.7349,14.6631
1083.719,221.372,176.864,,1083.719,693.645,707.543,,1083.719,31.9143,0.249969,24.9969,17.0577
1085.963,266.807,211.434,,1085.963,682.57,697.588,,1085.963,39.0886,0.303093,30.3093,20.1839
1088.208,317.786,253.572,,1088.208,679.494,689.411,,1088.208,46.768,0.36781,36.781,24.1926
1090.454,368.584,300.308,,1090.454,672.417,683.648,,1090.454,54.8148,0.439273,43.9273,29.1217
1092.772,412.29,347.54,,1092.772,662.701,676.076,,1092.772,62.2136,0.514055,51.4055,34.8973
1094.985,455.178,393.174,,1094.985,655.712,667.492,,1094.985,69.4174,0.589032,58.9032,41.3777
1097.197,488.247,433.866,,1097.197,655.176,661.371,,1097.197,74.5215,0.65601,65.601,48.2983
1099.409,513.861,468.73,,1099.409,648.729,656.29,,1099.409,79.2104,0.714212,71.4212,55.2594
1101.622,534.838,499.045,,1101.622,643.735,651.077,,1101.622,83.0836,0.76649,76.649,61.9537
1103.834,544.634,520.51,,1103.834,630.558,644.368,,1103.834,86.3733,0.807784,80.7784,68.104
1106.047,556.156,535.308,,1106.047,617.47,634.861,,1106.047,90.0701,0.84319,84.319,73.5373
1108.259,554.677,546.711,,1108.259,604.108,622.5,,1108.259,91.8175,0.878251,87.8251,78.2748
1110.472,557.835,551.55,,1110.472,594.744,610.059,,1110.472,93.7941,0.904094,90.4094,82.3507
1112.684,553.992,554.733,,1112.684,588.197,601.125,,1112.684,94.1848,0.922824,92.2824,85.7709
1114.897,543.603,551.522,,1114.897,576.102,592.421,,1114.897,94.3588,0.930962,93.0962,88.4959
1117.109,542.123,547.447,,1117.109,572.643,583.804,,1117.109,94.6703,0.937724,93.7724,90.6295
1119.321,532.37,541.804,,1119.321,558.727,574.676,,1119.321,95.2827,0.942798,94.2798,92.1819
1121.534,524.798,534.218,,1121.534,542.991,561.379,,1121.534,96.6495,0.951618,95.1618,93.3068
1123.746,516.771,528.02,,1123.746,534.618,550.187,,1123.746,96.6617,0.95971,95.971,94.1552
1125.959,508.562,521.627,,1125.959,521.969,539.044,,1125.959,97.4315,0.96769,96.769,94.8813
1128.171,492.079,510.936,,1128.171,512.41,527.379,,1128.171,96.0323,0.968822,96.8822,95.5436
1130.384,491.324,501.916,,1130.384,505.941,517.299,,1130.384,97.1109,0.970263,97.0263,96.0998
1132.596,482.022,495.326,,1132.596,492.015,507.577,,1132.596,97.969,0.975864,97.5864,96.6167
1134.809,474.175,486.535,,1134.809,476.541,494.825,,1134.809,99.5035,0.983247,98.3247,97.0883
1137.021,465.781,478.436,,1137.021,467.339,482.482,,1137.021,99.6666,0.991614,99.1614,97.5877
1139.233,451.842,467.867,,1139.233,447.226,469.085,,1139.233,101.032,0.997403,99.7403,98.087
1141.446,443.175,456.43,,1141.446,436.474,453.839,,1141.446,101.535,1.00571,100.571,98.7393
1143.658,435.962,446.383,,1143.658,427.176,442.761,,1143.658,102.057,1.00818,100.818,99.406
1145.871,424.112,436.957,,1145.871,417.603,433.352,,1145.871,101.559,1.00832,100.832,99.9874
1148.083,412.535,426.212,,1148.083,406.664,423.006,,1148.083,101.444,1.00758,100.758,100.398
1150.296,400.502,415.916,,1150.296,397.997,412.288,,1150.296,100.629,1.0088,100.88,100.702
1152.508,397.651,406.796,,1152.508,378.873,399.405,,1152.508,104.956,1.0185,101.85,100.954
1154.721,392.163,400.233,,1154.721,371.929,386.306,,1154.721,105.44,1.03605,103.605,101.431
1156.933,379.22,391.171,,1156.933,362.529,377.74,,1156.933,104.604,1.03556,103.556,101.955
1159.145,362.913,380.257,,1159.145,345.945,365.105,,1159.145,104.905,1.0415,104.15,102.546
1161.358,348.605,366.575,,1161.358,337.269,352.556,,1161.358,103.361,1.03976,103.976,103.148
1163.57,337.843,354.079,,1163.57,331.501,343.465,,1163.57,101.913,1.0309,103.09,103.581
1165.783,327.352,343.358,,1165.783,320.367,334.68,,1165.783,102.18,1.02593,102.593,103.585
1167.995,315.589,332.824,,1167.995,314.595,325.575,,1167.995,100.316,1.02226,102.226,103.341
1170.208,309.643,322.502,,1170.208,309.912,318.454,,1170.208,99.9132,1.01271,101.271,102.909
1172.42,298.334,312.664,,1172.42,302.319,311.822,,1172.42,98.6819,1.0027,100.27,102.237
1174.633,289.205,302.24,,1174.633,293.452,303.95,,1174.633,98.5527,0.994374,99.4374,101.479
1176.845,278.077,291.67,,1176.845,287.311,296.555,,1176.845,96.7861,0.98353,98.353,100.697
1179.057,265.948,280.906,,1179.057,269.168,287.512,,1179.057,98.8037,0.97702,97.702,99.805
1181.27,261.182,271.311,,1181.27,259.57,275.388,,1181.27,100.621,0.985195,98.5195,99.129
1183.482,255.689,264.041,,1183.482,258.334,266.759,,1183.482,98.9761,0.989809,98.9809,98.7635
1185.695,240.832,256.01,,1185.695,253.916,260.707,,1185.695,94.8471,0.981981,98.1981,98.5084
1187.907,233.066,246.304,,1187.907,251.678,256.108,,1187.907,92.6048,0.961717,96.1717,98.0653
1190.12,227.935,237.78,,1190.12,240.621,251.416,,1190.12,94.7278,0.945761,94.5761,97.4736
1192.332,213.532,228.724,,1192.332,233.382,244.964,,1192.332,91.4946,0.933704,93.3704,96.6788
1194.545,200.947,216.787,,1194.545,223.506,236.57,,1194.545,89.9068,0.916377,91.6377,95.4111
1196.757,200.362,208.166,,1196.757,220.356,227.657,,1196.757,90.9265,0.914386,91.4386,94.0105
1198.969,190.231,201.077,,1198.969,222.843,224.322,,1198.969,85.3655,0.896377,89.6377,92.7094
1201.182,190.918,195.277,,1201.182,222.693,224.009,,1201.182,85.7315,0.871737,87.1737,91.2945
1203.394,190.878,194.261,,1203.394,227.543,224.733,,1203.394,83.8866,0.864411,86.4411,89.8813
1205.607,178.929,189.582,,1205.607,221.393,224.578,,1205.607,80.8196,0.844171,84.4171,88.4438
1207.819,175.435,182.332,,1207.819,215.152,219.749,,1207.819,81.54,0.82973,82.973,86.9219
1210.032,177.577,179.425,,1210.032,210.821,215.869,,1210.032,84.2312,0.831175,83.1175,85.4042
1212.244,180.173,178.624,,1212.244,206.855,212.013,,1212.244,87.1011,0.842513,84.2513,84.5336
1214.456,173.589,177.001,,1214.456,197.525,207.03,,1214.456,87.882,0.854951,85.4951,84.2126
1216.669,156.913,170.514,,1216.669,185.106,198.968,,1216.669,84.7693,0.856995,85.6995,84.2357
1218.881,149.147,161.393,,1218.881,171.779,188.373,,1218.881,86.8249,0.856777,85.6777,84.5948
1221.094,141.2,152.848,,1221.094,151.726,174.676,,1221.094,93.0625,0.875039,87.5039,85.3486
1223.306,121.344,142.745,,1223.306,139.766,159.438,,1223.306,86.8194,0.895303,89.5303,86.4272
1225.519,109.852,128.472,,1225.519,124.081,145.808,,1225.519,88.5325,0.881103,88.1103,87.1
1227.731,103.451,117.937,,1227.731,117.488,132.501,,1227.731,88.0524,0.890085,89.0085,87.639
1229.944,98.143,110.039,,1229.944,112.353,124.089,,1229.944,87.3524,0.886777,88.6777,88.2274
1232.156,93.289,103.69,,1232.156,97.22,114.347,,1232.156,95.9566,0.906801,90.6801,88.8651
1234.368,90.073,97.7525,,1234.368,97.727,105.743,,1234.368,92.168,0.924437,92.4437,89.5025
1236.581,88.13,93.0115,,1236.581,95.509,101.209,,1236.581,92.274,0.919008,91.9008,90.1105
1238.793,81.006,88.4831,,1238.793,88.568,95.5963,,1238.793,91.4619,0.925591,92.5591,90.8476
1241.006,73.52,82.2435,,1241.006,82.539,89.3296,,1241.006,89.073,0.920675,92.0675,91.4612
1242.586,71.16,78.2033,,1242.586,79.058,86.0609,,1242.586,90.0099,0.908698,90.8698,