File: public_html/data/backup/plexiglas_3C01.csv
wavelength_nm,intensity,intensity_smoothed,,wavelength_nm2,intensity_i0,intensity_i0_smoothed,,wavelength_nm3,,transmission,transmission_perc,transmission_perc_smoothed
173.232,17.358,#N/A,,173.232,26.786,#N/A,,173.232,64.8025,#N/A,#N/A,#N/A
175.084,21.948,18.4457,,175.084,38.604,29.6984,,175.084,56.8542,0.621102,62.1102,#N/A
176.935,13.311,17.7666,,176.935,36.058,34.7287,,176.935,36.9155,0.511583,51.1583,#N/A
178.787,17.402,15.5254,,178.787,36.057,35.7311,,178.787,48.2625,0.434505,43.4505,#N/A
180.639,18.128,17.2613,,180.639,33.693,36.2498,,180.639,53.8035,0.476176,47.6176,#N/A
182.491,11.219,15.7172,,182.491,35.146,34.8517,,182.491,31.9211,0.450975,45.0975,#N/A
184.342,10.036,13.6176,,184.342,38.873,36.5629,,184.342,25.8174,0.372442,37.2442,47.4013
186.194,11.763,12.1728,,186.194,37.236,37.7408,,186.194,31.5904,0.322536,32.2536,42.6703
188.046,14.308,12.354,,188.046,41.599,37.9195,,188.046,34.3951,0.325797,32.5797,39.9026
189.897,18.126,14.1889,,189.897,38.507,39.5136,,189.897,47.072,0.359089,35.9089,37.8067
191.749,19.216,16.9576,,191.749,31.688,37.3555,,191.749,60.6413,0.453953,45.3953,36.8234
193.601,18.579,17.2344,,193.601,33.505,35.5764,,193.601,55.4514,0.484432,48.4432,37.9901
195.453,17.579,18.1009,,195.453,33.504,35.1224,,195.453,52.4684,0.515368,51.5368,41.1455
197.304,9.851,16.2059,,197.304,32.14,34.8236,,197.304,30.6503,0.46537,46.537,44.2753
199.156,10.85,12.8109,,199.156,31.503,33.8949,,199.156,34.4412,0.37796,37.796,45.4745
201.008,15.304,12.4118,,201.008,34.684,33.8897,,201.008,44.1241,0.36624,36.624,44.77
202.86,21.304,15.2356,,202.86,34.683,34.1697,,202.86,61.4249,0.445882,44.5882,43.7165
204.711,20.394,18.2254,,204.711,35.227,35.1271,,204.711,57.8931,0.518841,51.8841,43.818
206.563,18.575,18.1333,,206.563,32.136,34.3423,,206.563,57.8012,0.528018,52.8018,44.3222
208.415,17.575,17.6676,,208.415,36.68,34.8728,,208.415,47.9144,0.506629,50.6629,46.1734
210.267,12.938,16.8689,,210.267,34.316,35.8565,,210.267,37.7025,0.470455,47.0455,48.3498
212.118,8.937,14.7376,,212.118,32.679,35.2305,,212.118,27.3478,0.41832,41.832,49.0654
213.97,10.846,12.5012,,213.97,29.859,33.8215,,213.97,36.3241,0.369623,36.9623,46.9001
215.822,17.027,13.6081,,215.822,29.859,31.0561,,215.822,57.0247,0.438177,43.8177,44.5743
217.673,17.026,15.4079,,217.673,35.858,33.0981,,217.673,47.4817,0.465522,46.5522,43.4413
219.525,15.208,15.8323,,219.525,29.402,33.5853,,219.525,51.7244,0.471406,47.1406,42.9952
221.377,16.116,16.3704,,221.377,33.31,32.2544,,221.377,48.3819,0.507541,50.7541,44.0138
223.229,18.388,17.1748,,223.229,37.764,34.2879,,223.229,48.6919,0.500899,50.0899,46.2079
225.08,19.478,18.0595,,225.08,38.763,35.4599,,225.08,50.2489,0.509293,50.9293,48.4858
226.932,15.751,18.0458,,226.932,38.217,37.2011,,226.932,41.2146,0.485087,48.5087,49.0704
228.784,12.023,15.6661,,228.784,32.761,36.0345,,228.784,36.6991,0.434753,43.4753,48.7877
230.636,13.386,13.431,,230.636,29.397,34.1797,,230.636,45.5353,0.392954,39.2954,47.1103
232.487,12.021,13.2128,,232.487,33.214,33.1807,,232.487,36.1926,0.398208,39.8208,45.3344
234.339,10.385,11.3189,,234.339,34.304,34.4358,,234.339,30.2734,0.328697,32.8697,42.5488
236.191,16.657,13.2026,,236.191,27.485,31.4748,,236.191,60.604,0.419464,41.9464,40.3413
238.043,12.383,13.1634,,238.043,35.848,30.3274,,238.043,34.5431,0.434042,43.4042,39.941
239.894,16.564,13.357,,239.894,44.574,35.5211,,239.894,37.1607,0.376029,37.6029,39.5048
241.746,16.473,14.9085,,241.746,53.482,42.8589,,241.746,30.801,0.347851,34.7851,38.5982
243.598,18.018,16.3838,,243.598,62.208,50.6793,,243.598,28.9641,0.323284,32.3284,37.7985
245.449,13.199,16.2575,,245.449,62.662,56.7962,,245.449,21.0638,0.286244,28.6244,36.7685
247.301,17.653,15.3055,,247.301,66.025,60.0306,,247.301,26.7368,0.254961,25.4961,33.3492
249.153,18.834,17.3408,,249.153,75.569,66.0606,,249.153,24.9229,0.262499,26.2499,30.6409
251.005,19.742,18.823,,251.005,79.023,71.749,,251.005,24.9826,0.262345,26.2345,28.6182
252.856,15.105,18.6198,,252.856,77.567,74.9429,,252.856,19.4735,0.248453,24.8453,27.0005
254.681,17.468,16.9586,,254.681,79.021,76.3829,,254.681,22.1055,0.22202,22.202,25.4813
256.513,21.195,18.3139,,256.513,83.292,79.0528,,256.513,25.4466,0.231666,23.1666,24.7139
258.347,17.103,18.8295,,258.347,84.019,82.1099,,258.347,20.3561,0.229321,22.9321,24.2152
260.181,16.012,17.5984,,260.181,84.472,83.6374,,260.181,18.9554,0.210413,21.0413,23.3087
262.017,14.557,16.9952,,262.017,81.108,83.7727,,262.017,17.9477,0.202873,20.2873,22.3104
263.853,12.465,15.2442,,263.853,85.197,83.7059,,263.853,14.6308,0.182116,18.2116,21.4147
265.691,15.282,15.2257,,265.691,83.469,84.7439,,265.691,18.3086,0.179667,17.9667,20.5136
267.53,16.645,16.4721,,267.53,78.923,83.0577,,267.53,21.0902,0.198321,19.8321,19.664
269.369,21.736,17.5545,,269.369,82.013,82.1681,,269.369,26.5031,0.213641,21.3641,19.4669
271.21,17.28,18.074,,271.21,81.648,82.5729,,271.21,21.164,0.218886,21.8886,19.7511
273.052,21.098,18.2119,,273.052,78.374,81.0571,,273.052,26.9196,0.224679,22.4679,20.2568
274.895,18.37,20.149,,274.895,79.009,79.5774,,274.895,23.2505,0.2532,25.32,21.5633
276.739,14.369,18.0451,,276.739,83.554,81.013,,276.739,17.1973,0.222743,22.2743,22.449
278.584,17.459,17.3718,,278.584,79.462,81.556,,278.584,21.9715,0.213004,21.3004,22.5943
280.431,16.004,16.4907,,280.431,84.461,81.9941,,280.431,18.9484,0.20112,20.112,22.3188
282.278,19.276,16.9437,,282.278,87.55,84.3235,,282.278,22.0171,0.200936,20.0936,21.943
284.126,19.639,18.5745,,284.126,87.549,85.4577,,284.126,22.432,0.217353,21.7353,21.4518
285.976,20.002,19.6989,,285.976,89.821,87.2231,,285.976,22.2687,0.225844,22.5844,21.1223
287.826,15.183,19.1334,,287.826,86.82,87.5194,,287.826,17.4879,0.218619,21.8619,21.2666
289.678,16.364,17.4645,,289.678,88.001,87.5632,,289.678,18.5952,0.19945,19.945,21.1189
291.531,19.454,17.5179,,291.531,82.999,86.9141,,291.531,23.4388,0.201555,20.1555,21.0888
293.385,25.272,19.1875,,293.385,86.544,86.0818,,293.385,29.2013,0.222898,22.2898,21.1814
295.239,18.816,20.6915,,295.239,83.452,86.6223,,295.239,22.5471,0.23887,23.887,21.4898
297.095,16.543,17.8129,,297.095,80.632,83.1922,,297.095,20.5167,0.214118,21.4118,21.4734
298.952,18.451,17.8662,,298.952,84.904,83.8708,,298.952,21.7316,0.213021,21.3021,21.555
300.81,16.996,17.6411,,300.81,81.721,82.882,,300.81,20.7976,0.212846,21.2846,21.8839
302.669,22.359,18.8007,,302.669,90.811,84.7768,,302.669,24.6215,0.221767,22.1767,22.0423
304.53,18.812,20.2772,,304.53,88.537,86.7993,,304.53,21.2476,0.233611,23.3611,22.0019
306.391,18.721,19.5006,,306.391,85.536,86.9114,,306.391,21.8867,0.224373,22.4373,21.9185
308.253,20.629,19.9429,,308.253,82.171,84.5328,,308.253,25.105,0.235919,23.5919,22.3096
310.117,23.174,20.3971,,310.117,84.624,82.3974,,310.117,27.3847,0.247545,24.7545,22.8826
311.981,27.264,23.7402,,311.981,90.623,85.0406,,311.981,30.0851,0.279163,27.9163,23.9851
313.847,23.718,25.2292,,313.847,85.258,86.5371,,313.847,27.8191,0.291542,29.1542,25.1298
315.713,21.262,23.9428,,315.713,86.621,85.0832,,315.713,24.546,0.281404,28.1404,26.1948
317.581,21.534,22.0798,,317.581,89.074,85.5077,,317.581,24.1754,0.25822,25.822,26.871
319.45,23.624,22.117,,319.45,86.709,86.1281,,319.45,27.2452,0.256792,25.6792,27.196
321.319,19.805,22.686,,321.319,85.071,85.8514,,321.319,23.2806,0.264248,26.4248,27.1976
323.19,20.077,20.8526,,323.19,89.525,86.5611,,323.19,22.4261,0.240901,24.0901,26.4619
325.062,22.985,20.3021,,325.062,82.524,87.1706,,325.062,27.8525,0.2329,23.29,25.4314
326.935,18.803,20.3865,,326.935,88.25,86.2735,,326.935,21.3065,0.2363,23.63,24.8324
328.809,20.256,18.8854,,328.809,91.521,87.842,,328.809,22.1326,0.214993,21.4993,24.1649
330.685,26.801,20.4288,,330.685,97.156,91.0015,,330.685,27.5855,0.224488,22.4488,23.4129
332.561,28.709,23.8231,,332.561,89.337,92.2346,,332.561,32.1356,0.258288,25.8288,23.3149
334.438,21.436,25.0598,,334.438,91.608,90.0201,,334.438,23.3997,0.278381,27.8381,24.1037
336.316,16.798,21.7154,,336.316,91.879,91.5528,,336.316,18.2827,0.237189,23.7189,24.293
338.196,18.707,20.1062,,338.196,87.424,90.232,,338.196,21.398,0.222828,22.2828,24.178
340.076,20.615,19.9196,,340.076,90.422,89.0709,,340.076,22.7987,0.223638,22.3638,24.2338
341.958,22.159,20.6825,,341.958,88.694,88.8436,,341.958,24.9837,0.232797,23.2797,24.0135
343.84,19.34,20.9501,,343.84,88.42,88.2726,,343.84,21.8729,0.237334,23.7334,23.328
345.724,25.612,21.0727,,345.724,94.418,90.3649,,345.724,27.1262,0.233196,23.3196,22.7806
347.609,24.794,24.3498,,347.609,94.789,93.2687,,347.609,26.157,0.261072,26.1072,23.3186
349.495,14.973,21.3664,,349.495,91.155,93.6846,,349.495,16.4259,0.228067,22.8067,23.7237
351.382,21.338,19.3286,,351.382,90.863,92.7503,,351.382,23.4837,0.208394,20.8394,23.4597
353.269,16.379,19.5081,,353.269,93.89,92.5566,,353.269,17.4449,0.210769,21.0769,23.051
355.158,15.677,17.1408,,355.158,91.527,92.7964,,355.158,17.1283,0.184714,18.4714,22.297
357.048,15.84,17.5412,,357.048,92.684,93.1377,,357.048,17.0903,0.188336,18.8336,21.1669
358.94,18.548,17.0013,,358.94,95.218,94.2336,,358.94,19.4795,0.180417,18.0417,19.8447
360.832,22.247,19.0257,,360.832,96.431,95.4034,,360.832,23.0704,0.199424,19.9424,19.4364
362.725,19.724,19.8636,,362.725,93.62,95.0673,,362.725,21.0681,0.208943,20.8943,19.3231
364.619,21.622,20.3596,,364.619,105.359,96.5883,,364.619,20.5222,0.210788,21.0788,19.5341
366.515,26.765,21.5347,,366.515,104.282,101.133,,366.515,25.666,0.212934,21.2934,20.0231
368.411,24.424,23.2391,,368.411,101.47,101.551,,368.411,24.0702,0.228841,22.8841,20.8037
370.308,22.674,23.2593,,370.308,97.975,100.897,,370.308,23.1426,0.230525,23.0525,21.617
372.207,19.178,22.1248,,372.207,105.848,101.347,,372.207,18.1184,0.218307,21.8307,21.9894
374.107,16.894,19.7004,,374.107,105.608,103.386,,374.107,15.9969,0.190552,19.0552,21.773
376.007,27.487,21.1195,,376.007,106.189,104.33,,376.007,25.885,0.20243,20.243,21.4854
377.909,25.675,24.3247,,377.909,105.226,104.795,,377.909,24.3999,0.232117,23.2117,21.5348
379.812,22.422,24.0417,,379.812,111.582,106.882,,379.812,20.0946,0.224936,22.4936,21.5059
381.716,20.758,22.2433,,381.716,114.291,109.895,,381.716,18.1624,0.202406,20.2406,21.1117
383.62,27.617,23.0457,,383.62,112.097,112.163,,383.62,24.6367,0.205466,20.5466,21.0384
385.526,31.314,26.7147,,385.526,116.28,112.79,,385.526,26.9298,0.236854,23.6854,21.7578
387.433,19.234,26.5389,,387.433,115.424,114.342,,387.433,16.6638,0.232101,23.2101,22.1975
389.341,23.469,23.8682,,389.341,119.767,115.64,,389.341,19.5955,0.2064,20.64,21.8347
391.25,24.285,24.4819,,391.25,130.241,120.838,,391.25,18.6462,0.202602,20.2602,21.652
393.161,22.595,23.5018,,393.161,141.583,128.167,,393.161,15.9588,0.183369,18.3369,21.4452
395.072,20.776,22.3852,,395.072,162.278,140.311,,395.072,12.8027,0.15954,15.954,20.4508
396.984,19.692,20.6511,,396.984,184.699,157.71,,396.984,10.6617,0.130944,13.0944,18.5106
398.897,27.626,21.6326,,398.897,227.497,182.636,,398.897,12.1435,0.118446,11.8446,16.6374
400.812,28.466,25.189,,400.812,289.932,221.57,,400.812,9.81816,0.113684,11.3684,14.9155
402.727,27.162,25.8318,,402.727,375.612,277.644,,402.727,7.2314,0.0930393,9.30393,13.0863
404.644,26.523,25.6205,,404.644,524.35,364.121,,404.644,5.05826,0.0703626,7.03626,11.2494
406.561,21.267,24.3372,,406.561,752.631,501.419,,406.561,2.82569,0.0485366,4.85366,9.5058
408.48,24.926,23.0394,,408.48,1090.276,712.968,,408.48,2.28621,0.0323148,3.23148,7.86787
410.4,25.199,24.493,,410.4,1576.714,1024.69,,410.4,1.5982,0.0239029,2.39029,6.15295
412.32,20.717,23.7363,,412.32,2292.428,1484.04,,412.32,0.903714,0.0159943,1.59943,4.5116
414.242,18.335,21.1186,,414.242,3303.056,2146.55,,414.242,0.555092,0.00983842,0.983842,3.15433
416.165,26.323,21.9505,,416.165,4719.128,3089.8,,416.165,0.557794,0.00710416,0.710416,2.14126
418.089,24.197,23.3544,,418.089,6623.23,4399.73,,418.089,0.365335,0.00530814,0.530814,1.48211
420.014,25.941,23.1606,,420.014,9137.17,6168.31,,420.014,0.283906,0.00375477,0.375477,1.02152
421.939,25.888,25.5145,,421.939,12355.714,8501.15,,421.939,0.209522,0.0030013,0.30013,0.693707
423.866,21.367,24.1387,,423.866,16253.351,11472.2,,423.866,0.131462,0.00210411,0.210411,0.491288
425.795,19.395,22.1113,,425.795,20920.267,15116.3,,425.795,0.0927091,0.00146275,0.146275,0.362876
427.724,23.343,22.0695,,427.724,26342.847,19491.6,,427.724,0.0886123,0.00113226,0.113226,0.265981
429.654,22.042,23.5043,,429.654,32472.644,24593,,429.654,0.0678787,0.000955733,0.0955733,0.198442
431.585,22.189,22.554,,431.585,39466.603,30450.9,,431.585,0.0562222,0.000740665,0.0740665,0.148745
433.517,19.551,21.8799,,433.517,47212.176,37095.6,,433.517,0.0414109,0.000589825,0.0589825,0.111069
435.451,24.699,21.4436,,435.451,57567.013,44916.7,,435.451,0.0429048,0.000477408,0.0477408,0.0863339
437.385,28.155,24.6547,,437.385,64000,53518.3,,437.385,0.0439922,0.000460678,0.0460678,0.0705392
439.32,25.159,25.2785,,439.32,64000,58986.7,,439.32,0.0393109,0.000428545,0.0428545,0.0588067
441.257,21.409,23.9348,,441.257,64000,61602.1,,441.257,0.0334516,0.000388539,0.0388539,0.0502315
443.194,22.645,22.4811,,443.194,63787.125,62827.3,,443.194,0.0355009,0.000357823,0.0357823,0.044327
445.133,16.742,21.3544,,445.133,62883.234,63135.6,,445.133,0.0266239,0.000338231,0.0338231,0.0406939
447.072,18.62,18.9378,,447.072,61142.14,62615.5,,447.072,0.0304536,0.000302446,0.0302446,0.0376536
449.013,16.912,18.2973,,449.013,56984.331,60958,,449.013,0.0296783,0.000300163,0.0300163,0.0348394
450.955,17.453,17.3045,,450.955,48943.691,56974.3,,450.955,0.0356593,0.000303724,0.0303724,0.032762
452.897,19.212,17.4539,,452.897,40056.044,50478,,452.897,0.0479628,0.000345772,0.0345772,0.0320482
454.841,22.697,19.5876,,454.841,32726.301,43097.4,,454.841,0.069354,0.000454495,0.0454495,0.0333539
456.786,25.36,22.2689,,456.786,27131.96,36193.8,,456.786,0.0934691,0.000615269,0.0615269,0.038097
458.732,20.953,22.5111,,458.732,22827.2,30323.6,,458.732,0.0917896,0.000742362,0.0742362,0.0458611
460.679,18.912,21.6762,,460.679,19324.818,25488.8,,460.679,0.0978638,0.000850419,0.0850419,0.0556739
462.627,16.548,20.2528,,462.627,16380.89,21505.9,,462.627,0.10102,0.000941731,0.0941731,0.0669055
464.576,17.048,18.8876,,464.576,13857.231,18175.3,,464.576,0.123026,0.00103919,0.103919,0.0785411
466.526,18.077,17.3542,,466.526,11729.578,15364,,466.526,0.154115,0.00112954,0.112954,0.0893557
468.477,20.559,18.2615,,468.477,9995.534,13006.5,,468.477,0.205682,0.00140403,0.140403,0.101437
470.429,22.136,19.1557,,470.429,8656.172,11077,,470.429,0.255725,0.00172931,0.172931,0.117548
472.382,20.282,20.7584,,472.382,7635.598,9541.11,,472.382,0.265624,0.00217568,0.217568,0.139611
474.336,18.082,19.2198,,474.336,6854.628,8338.67,,474.336,0.263793,0.0023049,0.23049,0.164654
476.292,19.833,18.9851,,476.292,6260.377,7405.36,,476.292,0.316802,0.0025637,0.25637,0.191351
478.248,18.348,18.9109,,478.248,5803.889,6686.65,,478.248,0.316133,0.00282816,0.282816,0.220312
480.205,16.935,18.1292,,480.205,5461.718,6135.55,,480.205,0.310067,0.00295477,0.295477,0.245977
482.164,19.912,18.1886,,482.164,5237.861,5720.76,,482.164,0.380155,0.0031794,0.31794,0.267565
484.123,16.971,18.2344,,484.123,5160.507,5444.05,,484.123,0.328863,0.00334941,0.334941,0.287324
486.083,17.882,16.8374,,486.083,5228.466,5308.26,,486.083,0.342012,0.00317193,0.317193,0.302376
488.045,17.085,16.7116,,488.045,5480.019,5324.94,,488.045,0.311769,0.00313836,0.313836,0.31103
490.007,20.316,17.2989,,490.007,5891.004,5504.92,,490.007,0.344865,0.00314245,0.314245,0.315787
491.971,19.444,18.7396,,491.971,6468.471,5846.97,,491.971,0.300597,0.00320501,0.320501,0.320003
493.936,24.499,19.789,,493.936,7190.779,6348.99,,493.936,0.3407,0.00311687,0.311687,0.317208
495.901,24.988,23.3147,,495.901,8029.417,6994.04,,495.901,0.311206,0.00333351,0.333351,0.318293
497.868,17.196,21.6884,,497.868,9011.373,7778.88,,497.868,0.190826,0.00278812,0.278812,0.314945
499.836,20.687,20.1833,,499.836,10104.749,8696.37,,499.836,0.204726,0.00232088,0.232088,0.301925
501.804,22.487,20.937,,501.804,11270.159,9726.87,,501.804,0.199527,0.00215249,0.215249,0.28277
503.774,14.957,19.2114,,503.774,12464.423,10834.2,,503.774,0.119998,0.00177321,0.177321,0.259553
505.745,19.283,17.2928,,505.745,13673.219,11989.4,,505.745,0.141028,0.00144235,0.144235,0.226742
507.717,22.726,19.6347,,507.717,14872.93,13172.9,,507.717,0.152801,0.00149053,0.149053,0.194545
509.69,18.509,20.0676,,509.69,16056.998,14363.8,,509.69,0.115271,0.0013971,0.13971,0.173352
511.664,18.088,19.3294,,511.664,17217.394,15546.2,,511.664,0.105057,0.00124336,0.124336,0.154712
513.639,18.748,19.111,,513.639,18283.309,16693.9,,513.639,0.102542,0.00114479,0.114479,0.138488
515.615,20.588,18.7608,,515.615,19258.438,17775.9,,515.615,0.106904,0.00105541,0.105541,0.128641
517.592,19.199,19.0275,,517.592,20128.144,18776.6,,517.592,0.0953839,0.00101336,0.101336,0.120925
519.57,18.705,19.3193,,519.57,20880.749,19677.7,,519.57,0.0895801,0.000981785,0.0981785,0.112055
521.549,17.451,19.0339,,521.549,21567.103,20481.6,,521.549,0.0809149,0.00092932,0.092932,0.105238
523.529,17.63,18.7008,,523.529,22195.328,21213.8,,523.529,0.0794311,0.000881542,0.0881542,0.0994832
525.51,20.643,18.6185,,525.51,22691.129,21857.8,,525.51,0.0909739,0.000851799,0.0851799,0.0947563
527.493,22.959,20.4037,,527.493,23058.875,22393.1,,527.493,0.0995669,0.000911161,0.0911161,0.0919071
529.476,20.158,20.7913,,529.476,23304.066,22803.7,,529.476,0.0864999,0.00091175,0.091175,0.0904294
531.46,15.943,19.7261,,531.46,23470.938,23114.7,,531.46,0.0679266,0.000853404,0.0853404,0.0888354
533.446,16.269,17.9352,,533.446,23511.018,23315.5,,533.446,0.0691973,0.000769239,0.0769239,0.0867398
535.432,21.196,18.5273,,535.432,23522.14,23420.3,,535.432,0.0901108,0.000791079,0.0791079,0.0851337
537.419,21.518,19.8172,,537.419,23550.666,23479.6,,537.419,0.091369,0.000844018,0.0844018,0.0843765
539.408,24.275,20.8827,,539.408,23514.322,23508.5,,539.408,0.103235,0.000888302,0.0888302,0.0834768
541.397,22.599,22.2047,,541.397,23421.676,23487.5,,541.397,0.0964875,0.000945384,0.0945384,0.0841601
543.388,21.739,21.8987,,543.388,23308.611,23427,,543.388,0.093266,0.000934764,0.0934764,0.0865616
545.379,24.521,21.5985,,545.379,23191.606,23337.7,,545.379,0.105732,0.000925476,0.0925476,0.0895908
547.372,25.41,23.7147,,547.372,23067.082,23233,,547.372,0.110157,0.00102073,0.102073,0.0929041
549.365,20.451,22.5236,,549.365,22873.453,23102.2,,549.365,0.0894093,0.000974954,0.0974954,0.095379
551.36,19.051,20.9826,,551.36,22657.524,22929.7,,551.36,0.0840824,0.000915086,0.0915086,0.0956282
553.356,27.016,21.8175,,553.356,22458.012,22738.3,,553.356,0.120296,0.000959504,0.0959504,0.0952426
555.352,28.384,24.5696,,555.352,22260.207,22544.8,,555.352,0.12751,0.00108981,0.108981,0.0977581
557.35,25.372,24.3821,,557.35,21989.908,22330.1,,557.35,0.11538,0.0010919,0.10919,0.100202
559.349,24.803,24.5371,,559.349,21709.137,22080.9,,559.349,0.114251,0.00111124,0.111124,0.102134
561.348,17.541,23.3953,,561.348,21446.354,21819.4,,561.348,0.0817901,0.00107223,0.107223,0.104812
563.349,17.749,21.0892,,563.349,21149.204,21549.7,,563.349,0.0839228,0.000978631,0.0978631,0.106644
565.351,19.315,20.5077,,565.351,20809.542,21256.4,,565.351,0.092818,0.000964774,0.0964774,0.105592
567.354,15.657,19.7513,,567.354,20445.19,20936.2,,567.354,0.0765804,0.000943407,0.0943407,0.10272
569.358,22.742,19.5283,,569.358,20090.264,20589.1,,569.358,0.113199,0.000948479,0.0948479,0.0992364
571.363,22.049,21.1439,,571.363,19686.427,20228.3,,571.363,0.112001,0.00104526,0.104526,0.0976783
573.368,23.555,20.3372,,573.368,19315.428,19846,,573.368,0.121949,0.00102476,0.102476,0.097822
575.375,25.124,22.4906,,575.375,18986.807,19488.9,,575.375,0.132323,0.00115402,0.115402,0.100763
577.383,21.202,22.989,,577.383,18574.161,19122.9,,577.383,0.114148,0.00120217,0.120217,0.105484
579.392,21.941,22.1389,,579.392,18171.353,18727.8,,579.392,0.120745,0.00118214,0.118214,0.110598
581.402,26.375,23.3311,,581.402,17776.569,18343.2,,581.402,0.148369,0.00127192,0.127192,0.115177
583.413,29.784,25.7179,,583.413,17345.495,17939.5,,583.413,0.17171,0.00143359,0.143359,0.121702
585.425,42.487,30.9756,,585.425,16927.19,17522,,585.425,0.250999,0.00176782,0.176782,0.132435
587.439,50.909,38.5988,,587.439,16478.458,17098.9,,587.439,0.308943,0.00225739,0.225739,0.149877
589.453,69.402,48.6389,,589.453,16021.565,16657.7,,589.453,0.433179,0.0029199,0.29199,0.178662
591.468,97.961,66.212,,591.468,15595.936,16217,,591.468,0.628119,0.00408288,0.408288,0.226072
593.484,136.732,92.2307,,593.484,15135.761,15776.2,,593.484,0.903371,0.0058462,0.58462,0.300967
595.501,187.308,127.231,,595.501,14661.348,15320.5,,595.501,1.27756,0.00830464,0.830464,0.414756
597.519,255.68,174.386,,597.519,14208.392,14858.6,,597.519,1.7995,0.0117364,1.17364,0.579616
599.539,344.607,239.621,,599.539,13742.769,14406.5,,599.539,2.50755,0.0166328,1.66328,0.818626
601.559,453.812,320.597,,601.559,13250.632,13937.9,,601.559,3.42483,0.0230017,2.30017,1.15351
603.58,584.865,422.031,,603.58,12766.031,13456.8,,603.58,4.58142,0.0313619,3.13619,1.60863
605.602,735.807,543.641,,605.602,12339.477,12986.6,,605.602,5.96303,0.0418618,4.18618,2.21153
607.626,914.131,688.332,,607.626,11850.801,12526.1,,607.626,7.71366,0.054952,5.4952,2.99396
609.65,1115.897,856.277,,609.65,11365.108,12046.9,,609.65,9.81862,0.0710785,7.10785,3.98789
611.675,1332.751,1046.52,,611.675,10930.839,11580.6,,611.675,12.1926,0.0903685,9.03685,5.22661
613.702,1557.113,1251.08,,613.702,10480.543,11125.3,,613.702,14.8572,0.112454,11.2454,6.73196
615.729,1793.911,1470.95,,615.729,10058.86,10678.5,,615.729,17.8341,0.137749,13.7749,8.52321
617.757,2033.595,1700.58,,617.757,9626.625,10242.3,,617.757,21.1247,0.166035,16.6035,10.6142
619.787,2265.742,1934.08,,619.787,9178.597,9804.92,,619.787,24.6851,0.197256,19.7256,13.0091
621.817,2487.408,2163.22,,621.817,8739.57,9363.02,,621.817,28.4614,0.231039,23.1039,15.698
623.849,2716.057,2391.14,,623.849,8378.301,8944.18,,623.849,32.4178,0.26734,26.734,18.6723
625.881,2919.198,2614.28,,625.881,8018.036,8559.97,,625.881,36.4079,0.305407,30.5407,21.9149
627.915,3077.931,2813.39,,627.915,7612.591,8173.49,,627.915,40.4321,0.34421,34.421,25.3859
629.949,3218.89,2986.8,,629.949,7253.439,7787.88,,629.949,44.3774,0.383519,38.3519,29.0396
631.985,3358.015,3144.23,,631.985,6920.723,7425.09,,631.985,48.5212,0.42346,42.346,32.833
634.021,3457.673,3284.73,,634.021,6588.839,7077.77,,634.021,52.4777,0.464091,46.4091,36.7326
636.059,3516.675,3393.37,,636.059,6255.693,6735.87,,636.059,56.2156,0.503776,50.3776,40.6861
638.098,3548.281,3468,,638.098,5940.561,6402.08,,638.098,59.7297,0.541698,54.1698,44.6392
640.137,3559.515,3513.42,,640.137,5647.062,6082.74,,640.137,63.033,0.577606,57.7606,48.5437
642.178,3555.524,3535.88,,642.178,5351.739,5777.91,,642.178,66.4368,0.611966,61.1966,52.3558
644.219,3534.248,3542.16,,644.219,5077.458,5483.36,,644.219,69.6066,0.645983,64.5983,56.053
646.262,3483.354,3526.37,,646.262,4811.13,5203.37,,646.262,72.402,0.677708,67.7708,59.6016
648.306,3406.551,3483.9,,648.306,4540.322,4928.5,,648.306,75.0288,0.706889,70.6889,62.9799
650.35,3323.142,3423.82,,650.35,4299.885,4664.42,,650.35,77.2844,0.734029,73.4029,66.1813
652.396,3223.771,3345.42,,652.396,4069.196,4416.55,,652.396,79.2238,0.757475,75.7475,69.1847
654.443,3136.29,3260.72,,654.443,3845.692,4178.94,,654.443,81.5533,0.780273,78.0273,71.9683
656.49,3019.226,3167.23,,656.49,3614.831,3945.61,,656.49,83.5233,0.802722,80.2722,74.5538
658.539,2892.486,3059.8,,658.539,3395.884,3715.16,,658.539,85.1762,0.823599,82.3599,76.9632
660.589,2764.766,2940.83,,660.589,3212.113,3501.78,,660.589,86.0731,0.839808,83.9808,79.1701
662.64,2635.288,2817.46,,662.64,3008.504,3299.99,,662.64,87.5946,0.853778,85.3778,81.1629
664.691,2512.286,2691.55,,664.691,2825.846,3101.62,,664.691,88.9039,0.867789,86.7789,82.9896
666.744,2385.463,2567.1,,666.744,2665.607,2917.05,,666.744,89.4904,0.880034,88.0034,84.6316
668.798,2260.508,2439.89,,668.798,2508.898,2745.46,,668.798,90.0996,0.888702,88.8702,86.0424
670.853,2140.43,2317.16,,670.853,2354.692,2582.3,,670.853,90.9006,0.897324,89.7324,87.2529
672.909,2017.62,2194.33,,672.909,2213.672,2427.68,,672.909,91.1436,0.90388,90.388,88.3231
674.965,1907.029,2073.55,,674.965,2086.494,2283.43,,674.965,91.3987,0.908086,90.8086,89.2147
677.023,1811.36,1961.82,,677.023,1964.424,2148.24,,677.023,92.2082,0.91322,91.322,89.9364
679.082,1709.451,1857.65,,679.082,1847.565,2022.54,,679.082,92.5245,0.91847,91.847,90.5598
681.142,1605.043,1752.95,,681.142,1737.729,1903.79,,681.142,92.3644,0.920767,92.0767,91.0869
683.203,1504.652,1650.16,,683.203,1629.665,1789.43,,683.203,92.3289,0.922171,92.2171,91.4867
685.265,1408.541,1549.79,,685.265,1520.884,1678.67,,685.265,92.6133,0.923229,92.3229,91.8103
687.327,1324.169,1452.86,,687.327,1427.089,1572.32,,687.327,92.7881,0.924021,92.4021,92.0668
689.391,1241.668,1364.67,,689.391,1342.555,1474.85,,689.391,92.4854,0.925297,92.5297,92.2491
691.456,1163.997,1280.63,,691.456,1266.909,1386.44,,691.456,91.8769,0.923684,92.3684,92.3401
693.522,1097.023,1202.15,,693.522,1181.382,1302.62,,693.522,92.8593,0.922867,92.2867,92.3681
695.589,1023.161,1129.32,,695.589,1099.399,1217.94,,695.589,93.0655,0.927237,92.7237,92.4375
697.657,945.787,1053.12,,697.657,1034.453,1139.18,,697.657,91.4287,0.924457,92.4457,92.4889
699.726,889.139,982.399,,699.726,971.408,1066.88,,699.726,91.531,0.920811,92.0811,92.4323
701.796,829.082,918.793,,701.796,917.503,1001.66,,701.796,90.3629,0.917268,91.7268,92.3114
703.867,771.167,857.298,,703.867,861.064,943.417,,703.867,89.5598,0.908716,90.8716,92.0899
705.939,723.829,801.101,,705.939,804.537,885.41,,705.939,89.9684,0.90478,90.478,91.7219
708.012,684.926,750.649,,708.012,759.323,831.585,,708.012,90.2022,0.902673,90.2673,91.2739
710.085,638.086,704.481,,710.085,719.139,783.449,,710.085,88.7292,0.899204,89.9204,90.8595
712.16,587.367,655.49,,712.16,670.14,738.668,,712.16,87.6484,0.887394,88.7394,90.3217
714.236,541.24,607.527,,714.236,626.682,690.974,,714.236,86.366,0.879233,87.9233,89.7232
716.313,496.368,561.149,,716.313,586.621,647.561,,716.313,84.6148,0.866558,86.6558,89.0435
718.391,469.44,520.647,,718.391,553.42,606.872,,718.391,84.8253,0.857918,85.7918,88.2125
720.47,442.174,487.66,,720.47,515.553,569.744,,720.47,85.7669,0.855929,85.5929,87.3451
722.55,411.186,456.717,,722.55,489.289,534.375,,722.55,84.0375,0.854675,85.4675,86.6095
724.631,381.639,424.504,,724.631,456.046,503.092,,724.631,83.6843,0.843791,84.3791,85.9076
726.713,356.35,395.402,,726.713,427.384,471.345,,726.713,83.3793,0.83888,83.888,85.2528
728.796,331.036,368.832,,728.796,406.484,444.036,,728.796,81.4389,0.830635,83.0635,84.6987
730.88,307.483,342.662,,730.88,378.822,417.772,,730.88,81.1682,0.820214,82.0214,84.063
732.965,284.051,317.452,,732.965,361.79,392.676,,732.965,78.5127,0.808433,80.8433,83.2321
735.051,268.393,295.965,,735.051,344.187,371.911,,735.051,77.9788,0.795794,79.5794,82.2697
737.138,248.402,276.445,,737.138,327.822,352.608,,737.138,75.7734,0.784001,78.4001,81.2609
739.226,233.829,257.944,,739.226,309.223,335.6,,739.226,75.6182,0.768605,76.8605,80.0735
741.315,222.752,242.997,,741.315,291.064,317.051,,741.315,76.5302,0.766429,76.6429,78.945
743.405,209.77,229.782,,743.405,276.402,299.691,,743.405,75.8931,0.76673,76.673,78.0181
745.496,196.983,215.485,,745.496,267.689,285.57,,745.496,73.5865,0.754579,75.4579,77.1757
747.588,184.031,202.504,,747.588,249.668,272.766,,747.588,73.7103,0.742408,74.2408,76.3057
749.681,168.878,188.157,,749.681,240.994,258.037,,749.681,70.0756,0.729186,72.9186,75.4959
751.775,161.288,175.805,,751.775,237.1,248.653,,751.775,68.0253,0.707031,70.7031,74.4943
753.87,159.914,168.254,,753.87,228.541,240.406,,753.87,69.9717,0.699875,69.9875,73.2442
755.966,142.979,159.967,,755.966,222.743,232.847,,755.966,64.1901,0.687003,68.7003,71.9359
758.063,133.685,148.564,,758.063,209.387,224.581,,758.063,63.8459,0.661516,66.1516,70.4024
760.161,127.694,139.268,,760.161,198.162,212.747,,760.161,64.4392,0.654618,65.4618,68.8434
762.26,118.91,129.27,,762.26,193.657,204.219,,762.26,61.4024,0.632999,63.2999,67.3159
764.36,113.143,122.072,,764.36,185.172,196.9,,764.36,61.1016,0.61997,61.997,65.8267
766.461,102.78,113.681,,766.461,185.015,190.823,,766.461,55.5523,0.595741,59.5741,64.0771
768.562,97.751,107.298,,768.562,177.598,186.254,,768.562,55.0406,0.576081,57.6081,62.3239
770.665,84.927,99.0993,,770.665,168.205,179.624,,770.665,50.4902,0.551703,55.1703,60.4643
772.769,89.143,93.9025,,772.769,160.362,171.275,,772.769,55.5886,0.548257,54.8257,58.5745
774.874,80.678,89.3322,,774.874,156.442,163.531,,774.874,51.5706,0.546272,54.6272,57.0731
776.98,81.404,84.1502,,776.98,157.256,159.793,,776.98,51.7653,0.526621,52.6621,55.563
779.087,75.592,80.2267,,779.087,150.343,156.351,,779.087,50.2797,0.513121,51.3121,54.2279
781.195,73.005,78.3485,,781.195,140.336,150.312,,781.195,52.0216,0.521241,52.1241,53.3052
783.304,66.266,73.7031,,783.304,142.542,145.898,,783.304,46.4888,0.505169,50.5169,52.6424
785.414,63.283,69.4474,,785.414,141.88,144.517,,785.414,44.6032,0.480548,48.0548,51.4481
787.525,52.933,64.2717,,787.525,138.395,142.375,,787.525,38.2478,0.451426,45.1426,49.9962
789.637,53.611,58.3558,,789.637,135.958,140.064,,789.637,39.432,0.416638,41.6638,48.1853
791.749,63.075,58.6155,,791.749,131.269,136.744,,791.749,48.0502,0.428653,42.8653,46.4112
793.863,59.603,60.3373,,793.863,129.371,132.71,,793.863,46.0714,0.454656,45.4656,45.1562
795.978,54.124,57.826,,795.978,126.025,130.387,,795.978,42.947,0.443496,44.3496,44.322
798.094,49.545,53.8116,,798.094,126.645,128.492,,798.094,39.1212,0.418792,41.8792,43.5111
800.211,49.123,50.3438,,800.211,120.724,126.79,,800.211,40.6903,0.397064,39.7064,42.9207
802.329,45.458,47.9607,,802.329,125.017,126.006,,802.329,36.3615,0.380621,38.0621,42.3756
804.448,45.613,46.2274,,804.448,123.93,125.476,,804.448,36.8055,0.368415,36.8415,41.037
806.567,42.726,45.7125,,806.567,122.311,123.382,,806.567,34.9323,0.370495,37.0495,39.5107
808.688,44.046,43.987,,808.688,118.367,122.129,,808.688,37.2114,0.360169,36.0169,38.1741
810.81,44.011,44.571,,810.81,125.329,121.378,,810.81,35.1164,0.367208,36.7208,37.3736
812.933,34.929,41.6583,,812.933,123.13,122.682,,812.933,28.3676,0.339565,33.9565,36.5325
815.057,38.153,38.4241,,815.057,120.642,120.862,,815.057,31.625,0.317918,31.7918,35.5
817.181,32.913,36.2576,,817.181,129.685,123.09,,817.181,25.3792,0.294562,29.4562,34.1875
819.307,35.909,34.5884,,819.307,137.701,129.382,,819.307,26.0775,0.267336,26.7336,32.4236
821.434,35.111,34.8426,,821.434,141.814,134.579,,821.434,24.7585,0.2589,25.89,30.4786
823.562,32.42,33.2017,,823.562,150.847,140.696,,823.562,21.492,0.235981,23.5981,28.333
825.69,30.902,32.7879,,825.69,162.962,148.914,,825.69,18.9627,0.22018,22.018,26.4298
827.82,28.499,31.8919,,827.82,184.395,161.474,,827.82,15.4554,0.197504,19.7504,24.4345
829.951,30.175,31.4144,,829.951,200.202,177.52,,829.951,15.0723,0.176962,17.6962,22.5789
832.082,30.226,30.7155,,832.082,211.484,192.708,,832.082,14.2923,0.159388,15.9388,20.6713
834.215,31.955,31.0587,,834.215,217.983,204.276,,834.215,14.6594,0.152042,15.2042,18.8348
836.349,28.828,31.1291,,836.349,222.188,211.359,,836.349,12.9746,0.147281,14.7281,17.3056
838.483,24.378,29.2835,,838.483,255.234,223.382,,838.483,9.55124,0.131092,13.1092,15.9162
840.619,22.163,27.0654,,840.619,308.756,252.75,,840.619,7.17816,0.107084,10.7084,14.5285
842.755,23.928,25.3237,,842.755,374.652,296.792,,842.755,6.38673,0.0853248,8.53248,13.0618
844.893,30.191,25.8459,,844.893,464.696,359.307,,844.893,6.49694,0.0719327,7.19327,11.5385
847.032,34.268,27.776,,847.032,557.035,437.958,,847.032,6.15186,0.0634215,6.34215,9.92633
849.171,32.292,31.6047,,849.171,661.057,525.484,,849.171,4.8849,0.0601441,6.01441,8.39669
851.312,25.032,30.7365,,851.312,756.098,619.683,,851.312,3.31068,0.0496004,4.96004,7.1179
853.453,29.021,29.3845,,853.453,857.691,715.358,,853.453,3.38362,0.0410767,4.10767,6.0955
855.596,24.635,28.7366,,855.596,945.06,813.531,,855.596,2.60671,0.0353233,3.53233,5.30952
857.739,15.961,23.3162,,857.739,1009.281,898.409,,857.739,1.58142,0.0259528,2.59528,4.56458
859.884,18.972,20.1136,,859.884,1085.862,977.02,,859.884,1.74718,0.0205867,2.05867,3.79817
862.029,21.854,20.0686,,862.029,1134.54,1048.31,,862.029,1.92624,0.0191437,1.91437,3.10083
864.175,25.246,21.7593,,864.175,1180.224,1104.7,,864.175,2.13909,0.019697,1.9697,2.61703
866.323,18.126,21.6055,,866.323,1219.693,1154.71,,866.323,1.48611,0.0187107,1.87107,2.24865
868.471,17.301,19.284,,868.471,1270.779,1200.42,,868.471,1.36145,0.0160644,1.60644,1.97144
870.621,16.963,19.1601,,870.621,1328.341,1250.62,,870.621,1.27701,0.0153205,1.53205,1.82471
872.771,14.942,17.267,,872.771,1407.639,1310.18,,872.771,1.06149,0.0131791,1.31791,1.712
874.922,22.238,17.6342,,874.922,1501.233,1383.95,,874.922,1.48132,0.0127419,1.27419,1.58459
877.075,21.766,20.2342,,877.075,1615.768,1472.94,,877.075,1.3471,0.0137373,1.37373,1.4697
879.228,19.857,20.6625,,879.228,1742.694,1578.64,,879.228,1.13944,0.0130888,1.30888,1.39038
881.382,20.117,20.3091,,881.382,1861.847,1694.73,,881.382,1.08049,0.0119837,1.19837,1.32621
883.537,18.204,19.9535,,883.537,1967.351,1809.46,,883.537,0.925305,0.0110274,1.10274,1.26504
885.694,15.807,18.4481,,885.694,2063.009,1916.59,,885.694,0.766211,0.00962549,0.962549,1.2145
887.851,15.947,17.0164,,887.851,2128.935,2010.83,,887.851,0.74906,0.00846238,0.846238,1.12686
890.009,21.201,17.8243,,890.009,2174.289,2085.22,,890.009,0.975077,0.00854789,0.854789,1.0284
892.168,23.15,20.4923,,892.168,2167.414,2133.41,,892.168,1.06809,0.00960543,0.960543,0.965004
894.328,21.14,21.1959,,894.328,2119.476,2141.3,,894.328,0.997416,0.00989863,0.989863,0.931563
896.489,23.314,20.8435,,896.489,2026.271,2108.09,,896.489,1.15059,0.00988737,0.988737,0.921177
898.651,17.367,20.4545,,898.651,1918.326,2037.89,,898.651,0.905321,0.0100371,1.00371,0.940151
900.815,14.101,17.8161,,900.815,1785.282,1942.55,,900.815,0.789847,0.00917147,0.917147,0.961074
902.979,16.708,16.4232,,902.979,1649.08,1825.48,,902.979,1.01317,0.00899662,0.899662,0.961278
905.144,19.221,17.1442,,905.144,1520.884,1700.28,,905.144,1.2638,0.0100831,1.00831,0.961444
907.31,21.223,18.7669,,907.31,1390.411,1573.02,,907.31,1.52638,0.0119305,1.19305,0.989732
909.477,21.062,20.3637,,909.477,1272.518,1446.96,,909.477,1.65514,0.0140734,1.40734,1.05282
911.644,22.517,21.0748,,911.644,1161.269,1326.88,,911.644,1.939,0.0158829,1.58829,1.15965
913.813,16.412,20.7179,,913.813,1069.772,1215.71,,913.813,1.53416,0.0170418,1.70418,1.30655
915.983,16.492,18.0616,,915.983,988.66,1118.11,,915.983,1.66812,0.0161536,1.61536,1.43712
918.154,19.208,17.8669,,918.154,909.367,1029.4,,918.154,2.11224,0.0173566,1.73566,1.55163
920.326,18.288,18.1896,,920.326,840.982,947.826,,920.326,2.1746,0.0191908,1.91908,1.66571
922.499,20.367,19.0031,,922.499,785.234,877.373,,922.499,2.59375,0.0216591,2.16591,1.78018
924.673,18.719,19.0639,,924.673,726.212,813.978,,924.673,2.57762,0.0234207,2.34207,1.90424
926.847,20.162,18.582,,926.847,673.645,755.023,,926.847,2.99297,0.0246111,2.46111,2.05248
929.023,22.332,19.5075,,929.023,616.077,698.139,,929.023,3.62487,0.0279421,2.79421,2.25132
931.2,20.592,21.1346,,931.2,561.781,640.213,,931.2,3.66549,0.0330118,3.30118,2.50287
933.377,19.398,20.213,,933.377,520.304,588.161,,933.377,3.72821,0.0343665,3.43665,2.76823
935.556,20.568,20.3631,,935.556,473.28,540.136,,935.556,4.34584,0.0376999,3.76999,3.03115
937.736,21.828,20.3541,,937.736,444.62,497.338,,937.736,4.90936,0.0409262,4.09262,3.33602
939.916,22.997,21.8011,,939.916,412.505,461.97,,939.916,5.57496,0.0471915,4.71915,3.70749
942.098,15.075,19.2527,,942.098,382.026,427.176,,942.098,3.94607,0.0450697,4.50697,4.01709
944.28,18.698,17.1196,,944.28,357.638,396.484,,944.28,5.22819,0.0431784,4.31784,4.19554
946.464,22.866,18.9705,,946.464,338.612,371.382,,946.464,6.75286,0.0510808,5.10808,4.44244
948.648,21.58,21.3785,,948.648,323.405,350.131,,948.648,6.67275,0.0610585,6.10585,4.81367
950.834,18.293,20.1604,,950.834,304.379,331.288,,950.834,6.00994,0.0608546,6.08546,5.14245
953.02,26.461,20.7022,,953.02,291.17,312.93,,953.02,9.08782,0.066156,6.6156,5.45598
955.207,18.537,21.7063,,955.207,282.78,299.394,,955.207,6.55527,0.0725008,7.25008,5.99806
957.396,19.159,19.5314,,957.396,274.843,289.202,,957.396,6.97089,0.0675355,6.75355,6.42581
959.585,26.235,22.6474,,959.585,262.27,278.682,,959.585,10.0031,0.0812662,8.12662,6.80173
961.775,21.129,24.1677,,961.775,258.151,268.507,,961.775,8.18474,0.0900076,9.00076,7.3109
963.966,21.023,22.7467,,963.966,254.941,261.316,,963.966,8.24622,0.0870465,8.70465,7.8014
966.159,22.28,22.3214,,966.159,249.184,255.731,,966.159,8.94118,0.0872845,8.72845,8.0978
968.352,18.719,22.4336,,968.352,245.245,251.243,,968.352,7.63278,0.0892906,8.92906,8.4665
970.546,13.612,18.9449,,970.546,243.579,247.699,,970.546,5.58833,0.0764834,7.64834,8.6324
972.741,20.232,17.7876,,972.741,247.457,246.404,,972.741,8.17597,0.0721888,7.21888,8.37738
974.937,20.215,19.6429,,974.937,250.154,248.187,,974.937,8.08102,0.0791455,7.91455,8.16393
977.134,20.562,19.3501,,977.134,255.304,251.319,,977.134,8.05393,0.0769943,7.69943,8.01953
979.332,22.908,20.6837,,979.332,259.999,254.524,,979.332,8.8108,0.0812641,8.12641,7.84639
981.531,21.346,20.9591,,981.531,265.33,259.407,,981.531,8.04508,0.0807961,8.07961,7.80126
983.731,25.873,21.9515,,983.731,271.115,263.446,,983.731,9.54318,0.0833245,8.33245,7.97519
985.932,25.219,23.3464,,985.932,279.717,269.85,,985.932,9.0159,0.0865161,8.65161,8.17344
988.134,23.201,24.0158,,988.134,288.592,276.398,,988.134,8.03938,0.0868882,8.68882,8.32261
990.336,23.273,23.6008,,990.336,304.103,287.506,,990.336,7.653,0.0820878,8.20878,8.41533
992.54,20.072,22.0802,,992.54,312.703,299.062,,992.54,6.41887,0.0738314,7.38314,8.31093
994.745,27.507,22.4457,,994.745,332.031,310.388,,994.745,8.28447,0.0723148,7.23148,8.12583
996.951,26.124,24.7895,,996.951,345.812,325.534,,996.951,7.55439,0.0761502,7.61502,7.94623
999.157,26.013,24.9004,,999.157,349.411,336.816,,999.157,7.44481,0.0739286,7.39286,7.70913
1001.365,24.266,25.5538,,1001.365,361.555,346.187,,1001.365,6.71157,0.0738151,7.38151,7.49633
1003.573,24.972,25.6711,,1003.573,380.062,358.838,,1003.573,6.57051,0.0715394,7.15394,7.35777
1005.783,24.497,24.9122,,1005.783,394.568,373.644,,1005.783,6.20856,0.0666735,6.66735,7.28709
1007.993,28.839,25.1948,,1007.993,413.801,388.537,,1007.993,6.96929,0.0648454,6.48454,7.10368
1010.205,27.272,27.1649,,1010.205,445.124,410.293,,1010.205,6.12683,0.0662084,6.62084,6.93526
1012.417,23.432,26.3675,,1012.417,471.173,434.633,,1012.417,4.97312,0.0606662,6.06662,6.71704
1014.631,24.864,24.4277,,1014.631,504.404,462.228,,1014.631,4.92938,0.0528478,5.28478,6.3842
1016.845,28.841,25.6477,,1016.845,547.543,494.746,,1016.845,5.26735,0.0518402,5.18402,6.0501
1019.06,23.181,25.604,,1019.06,593.226,534.401,,1019.06,3.90762,0.0479117,4.79117,5.75512
1021.277,26.249,25.6921,,1021.277,641.091,577.026,,1021.277,4.09443,0.0445251,4.45251,5.35559
1023.494,22.952,26.2333,,1023.494,672.682,618.95,,1023.494,3.41201,0.0423835,4.23835,4.95788
1025.712,23.745,24.6775,,1025.712,700.636,653.562,,1025.712,3.38906,0.0377584,3.77584,4.61153
1027.931,23.629,24.7323,,1027.931,723.589,684.128,,1027.931,3.26553,0.0361516,3.61516,4.30911
1030.151,21.513,24.2196,,1030.151,746.36,710.127,,1030.151,2.88239,0.0341059,3.41059,3.99242
1032.372,20.578,22.1767,,1032.372,762.675,733.866,,1032.372,2.69813,0.030219,3.0219,3.70896
1034.594,25.279,22.0953,,1034.594,772.535,752.162,,1034.594,3.27221,0.0293757,2.93757,3.43669
1036.817,22.616,22.7285,,1036.817,784.121,766.641,,1036.817,2.88425,0.0296468,2.96468,3.24508
1039.041,20.043,21.7396,,1039.041,784.706,776.29,,1039.041,2.55421,0.0280045,2.80045,3.09517
1041.266,19.561,20.7688,,1041.266,789.018,782.075,,1041.266,2.47916,0.0265559,2.65559,2.9375
1043.492,21.169,20.5161,,1043.492,792.237,785.442,,1043.492,2.67205,0.0261204,2.61204,2.82805
1045.718,21.686,20.0345,,1045.718,793.002,788.197,,1045.718,2.73467,0.0254182,2.54182,2.75737
1047.946,18.293,19.7506,,1047.946,792.401,789.724,,1047.946,2.30855,0.0250095,2.50095,2.6738
1050.175,18.627,19.1184,,1050.175,793.436,791.619,,1050.175,2.34764,0.024151,2.4151,2.58004
1052.405,17.142,18.4359,,1052.405,792.47,791.89,,1052.405,2.16311,0.0232809,2.32809,2.50949
1054.635,15.293,16.0988,,1054.635,785.776,789.36,,1054.635,1.94623,0.0203947,2.03947,2.41329
1056.867,13.807,14.4083,,1056.867,787.626,786.615,,1056.867,1.75299,0.0183168,1.83168,2.27773
1059.099,16.138,14.5828,,1059.099,787.384,785.817,,1059.099,2.04957,0.0185575,1.85575,2.14199
1061.333,20.56,16.5872,,1061.333,773.686,781.92,,1061.333,2.65741,0.0212135,2.12135,2.0601
1063.567,17.072,18.0222,,1063.567,766.806,775.044,,1063.567,2.22638,0.0232531,2.32531,2.04457
1065.802,19.402,18.0507,,1065.802,755.742,768.407,,1065.802,2.56728,0.023491,2.3491,2.06705
1068.039,14.095,17.3239,,1068.039,747.405,760.279,,1068.039,1.88586,0.0227863,2.27863,2.14251
1070.276,19.696,16.6658,,1070.276,743.794,753.164,,1070.276,2.64805,0.0221277,2.21277,2.21259
1072.514,13.478,17.785,,1072.514,733.181,745.682,,1072.514,1.83829,0.0238507,2.38507,2.29094
1074.753,17.26,15.832,,1074.753,730.386,738.361,,1074.753,2.36313,0.0214421,2.14421,2.27873
1076.993,19.314,16.3973,,1076.993,723.134,732.281,,1076.993,2.67087,0.022392,2.2392,2.26071
1079.234,18.731,16.7436,,1079.234,719.154,726.24,,1079.234,2.60459,0.0230552,2.30552,2.24787
1081.476,21.147,18.0562,,1081.476,701.537,717.852,,1081.476,3.01438,0.0251531,2.51531,2.29279
1083.719,21.562,18.8184,,1083.719,693.645,707.543,,1083.719,3.10851,0.0265968,2.65968,2.34639
1085.963,24.159,20.5701,,1085.963,682.57,697.588,,1085.963,3.53942,0.0294875,2.94875,2.4661
1088.208,16.755,20.5486,,1088.208,679.494,689.411,,1088.208,2.46581,0.0298061,2.98061,2.62364
1090.454,11.35,16.8253,,1090.454,672.417,683.648,,1090.454,1.68794,0.024611,2.4611,2.6911
1092.772,14.217,15.39,,1092.772,662.701,676.076,,1092.772,2.14531,0.0227637,2.27637,2.67437
1094.985,12.174,14.7941,,1094.985,655.712,667.492,,1094.985,1.85661,0.0221638,2.21638,2.61329
1097.197,12.585,13.3901,,1097.197,655.176,661.371,,1097.197,1.92086,0.020246,2.0246,2.47485
1099.409,8.631,12.0089,,1099.409,648.729,656.29,,1099.409,1.33045,0.0182982,1.82982,2.26249
1101.622,10.768,11.4087,,1101.622,643.735,651.077,,1101.622,1.67274,0.0175229,1.75229,2.06235
1103.834,16.358,12.6304,,1103.834,630.558,644.368,,1103.834,2.59421,0.0196012,1.96012,1.97511
1106.047,17.22,14.6181,,1106.047,617.47,634.861,,1106.047,2.7888,0.0230257,2.30257,1.96182
1108.259,15.627,15.0728,,1108.259,604.108,622.5,,1108.259,2.58679,0.0242134,2.42134,2.02051
1110.472,15.033,14.742,,1110.472,594.744,610.059,,1110.472,2.52764,0.0241649,2.41649,2.11073
1112.684,12.62,14.4117,,1112.684,588.197,601.125,,1112.684,2.14554,0.0239745,2.39745,2.24353
1114.897,14.024,13.6027,,1114.897,576.102,592.421,,1114.897,2.43429,0.0229613,2.29613,2.34394
1117.109,12.337,14.0258,,1117.109,572.643,583.804,,1117.109,2.1544,0.0240248,2.40248,2.39765
1119.321,11.739,12.3046,,1119.321,558.727,574.676,,1119.321,2.10103,0.0214114,2.14114,2.36962
1121.534,14.05,13.3261,,1121.534,542.991,561.379,,1121.534,2.58752,0.0237382,2.37382,2.34197
1123.746,11.178,13.6174,,1123.746,534.618,550.187,,1123.746,2.09084,0.0247504,2.47504,2.34643
1125.959,15.214,13.2561,,1125.959,521.969,539.044,,1125.959,2.91473,0.0245919,2.45919,2.36119
1128.171,20.158,15.3318,,1128.171,512.41,527.379,,1128.171,3.93396,0.0290716,2.90716,2.43509
1130.384,15.92,16.9981,,1130.384,505.941,517.299,,1130.384,3.14661,0.0328593,3.28593,2.61081
1132.596,7.317,13.5657,,1132.596,492.015,507.577,,1132.596,1.48715,0.0267264,2.67264,2.73689
1134.809,8.622,10.604,,1134.809,476.541,494.825,,1134.809,1.80929,0.0214299,2.14299,2.704
1137.021,9.108,9.79877,,1137.021,467.339,482.482,,1137.021,1.94891,0.0203091,2.03091,2.63606
1139.233,8.866,9.12046,,1139.233,447.226,469.085,,1139.233,1.98244,0.0194431,1.94431,2.52068
1141.446,14.441,10.0167,,1141.446,436.474,453.839,,1141.446,3.30856,0.022071,2.2071,2.32323
1143.658,13.924,11.6141,,1143.658,427.176,442.761,,1143.658,3.25955,0.0262311,2.62311,2.22597
1145.871,10.77,12.1786,,1145.871,417.603,433.352,,1145.871,2.579,0.0281033,2.81033,2.29952
1148.083,8.887,10.6914,,1148.083,406.664,423.006,,1148.083,2.18534,0.0252748,2.52748,2.40474
1150.296,12.641,10.9928,,1150.296,397.997,412.288,,1150.296,3.17615,0.0266628,2.66628,2.50851
1152.508,14.484,12.3355,,1152.508,378.873,399.405,,1152.508,3.82292,0.0308848,3.08848,2.68945
1154.721,11.053,12.9367,,1154.721,371.929,386.306,,1154.721,2.9718,0.0334881,3.34881,2.8498
1156.933,8.076,11.8082,,1156.933,362.529,377.74,,1156.933,2.22768,0.0312601,3.12601,2.92782
1159.145,14.734,10.8219,,1159.145,345.945,365.105,,1159.145,4.25906,0.0296405,2.96405,2.95975
1161.358,19.119,13.8206,,1161.358,337.269,352.556,,1161.358,5.66877,0.0392011,3.92011,3.16767
1163.57,10.412,13.3525,,1163.57,331.501,343.465,,1163.57,3.14087,0.0388759,3.88759,3.38809
1165.783,13.796,12.3335,,1165.783,320.367,334.68,,1165.783,4.30631,0.0368515,3.68515,3.47646
1167.995,11.723,12.4963,,1167.995,314.595,325.575,,1167.995,3.72638,0.0383823,3.83823,3.58963
1170.208,18.559,14.0809,,1170.208,309.912,318.454,,1170.208,5.98847,0.0442165,4.42165,3.82704
1172.42,16.122,16.2873,,1172.42,302.319,311.822,,1172.42,5.33278,0.0522327,5.22327,4.14603
1174.633,10.774,14.9106,,1174.633,293.452,303.95,,1174.633,3.67147,0.0490561,4.90561,4.32554
1176.845,8.881,11.9785,,1176.845,287.311,296.555,,1176.845,3.09108,0.0403922,4.03922,4.42278
1179.057,7.714,9.69014,,1179.057,269.168,287.512,,1179.057,2.86587,0.0337034,3.37034,4.36216
1181.27,10.365,9.166,,1181.27,259.57,275.388,,1181.27,3.99314,0.0332839,3.32839,4.23361
1183.482,10.015,9.7873,,1183.482,258.334,266.759,,1183.482,3.87676,0.0366896,3.66896,4.00053
1185.695,15.028,11.4247,,1185.695,253.916,260.707,,1185.695,5.91849,0.043822,4.3822,3.81415
1187.907,9.677,12.1626,,1187.907,251.678,256.108,,1187.907,3.84499,0.0474898,4.74898,3.85818
1190.12,9.143,11.4161,,1190.12,240.621,251.416,,1190.12,3.79975,0.0454072,4.54072,4.03044
1192.332,12.519,11.8012,,1192.332,233.382,244.964,,1192.332,5.36417,0.0481752,4.81752,4.28953
1194.545,13.712,13.6607,,1194.545,223.506,236.57,,1194.545,6.13496,0.0577449,5.77449,4.65202
1196.757,8.087,12.8861,,1196.757,220.356,227.657,,1196.757,3.66997,0.0566031,5.66031,5.00278
1198.969,10.552,10.7044,,1198.969,222.843,224.322,,1198.969,4.73517,0.047719,4.7719,5.04196
1201.182,9.836,10.821,,1201.182,222.693,224.009,,1201.182,4.41684,0.0483061,4.83061,5.06276
1203.394,6.756,9.20935,,1203.394,227.543,224.733,,1203.394,2.96911,0.0409792,4.09792,5.01856
1205.607,15.949,9.54006,,1205.607,221.393,224.578,,1205.607,7.20393,0.0424799,4.24799,4.8193
1207.819,14.687,12.5013,,1207.819,215.152,219.749,,1207.819,6.82634,0.056889,5.6889,4.7288
1210.032,14.881,13.3515,,1210.032,210.821,215.869,,1210.032,7.05859,0.06185,6.185,4.91328
1212.244,18.62,16.3139,,1212.244,206.855,212.013,,1212.244,9.00147,0.0769477,7.69477,5.37896
1214.456,13.904,16.1083,,1214.456,197.525,207.03,,1214.456,7.03911,0.0778062,7.78062,6.00141
1216.669,15.917,14.2574,,1216.669,185.106,198.968,,1216.669,8.59886,0.071657,7.1657,6.62604
1218.881,15.84,15.2195,,1218.881,171.779,188.373,,1218.881,9.22115,0.0807945,8.07945,7.1599
1221.094,12.945,14.8148,,1221.094,151.726,174.676,,1221.094,8.53183,0.0848134,8.48134,7.63509
1223.306,15.051,14.2895,,1223.306,139.766,159.438,,1223.306,10.7687,0.0896244,8.96244,7.9958
1225.519,15.431,15.1639,,1225.519,124.081,145.808,,1225.519,12.4362,0.103999,10.3999,8.39536
1227.731,14.448,14.4638,,1227.731,117.488,132.501,,1227.731,12.2974,0.10916,10.916,9.03293
1229.944,17.194,15.0242,,1229.944,112.353,124.089,,1229.944,15.3036,0.121076,12.1076,9.82047
1232.156,15.942,16.6131,,1232.156,97.22,114.347,,1232.156,16.3979,0.145286,14.5286,10.8563
1234.368,13.781,15.9273,,1234.368,97.727,105.743,,1234.368,14.1015,0.150623,15.0623,12.0965
1236.581,22.259,17.5902,,1236.581,95.509,101.209,,1236.581,23.3057,0.173801,17.3801,13.3815
1238.793,19.466,20.5168,,1238.793,88.568,95.5963,,1238.793,21.9786,0.214619,21.4619,15.2453
1241.006,18.584,20.1945,,1241.006,82.539,89.3296,,1241.006,22.5154,0.226067,22.6067,17.3074
1242.586,22.486,20.0965,,1242.586,79.058,86.0609,,1242.586,28.4424,0.233515,23.3515,