File: public_html/data/backup/plexiglas_0F00.csv
wavelength_nm,intensity,intensity_smoothed,,wavelength_nm2,intensity_i0,intensity_i0_smoothed,,wavelength_nm3,,transmission,transmission_perc,transmission_perc_smoothed
173.232,17.719,#N/A,,173.232,26.786,#N/A,,173.232,66.1502,#N/A,#N/A,#N/A
175.084,28.977,20.599,,175.084,38.604,29.6984,,175.084,75.0622,0.693607,69.3607,#N/A
176.935,30.976,26.0278,,176.935,36.058,34.7287,,176.935,85.906,0.749459,74.9459,#N/A
178.787,29.521,28.8164,,178.787,36.057,35.7311,,178.787,81.8731,0.806478,80.6478,#N/A
180.639,31.885,28.7507,,180.639,33.693,36.2498,,180.639,94.6339,0.793128,79.3128,#N/A
182.491,33.793,31.7395,,182.491,35.146,34.8517,,182.491,96.1503,0.910704,91.0704,#N/A
184.342,31.793,32.737,,184.342,38.873,36.5629,,184.342,81.7868,0.895362,89.5362,81.7372
186.194,30.701,31.9958,,186.194,37.236,37.7408,,186.194,82.4498,0.847777,84.7777,84.5359
188.046,27.792,29.9116,,188.046,41.599,37.9195,,188.046,66.8093,0.788818,78.8818,85.0777
189.897,29.61,30.5006,,189.897,38.507,39.5136,,189.897,76.8951,0.771902,77.1902,84.4222
191.749,30.246,30.2264,,191.749,31.688,37.3555,,191.749,95.4494,0.809156,80.9156,83.4193
193.601,31.972,31.173,,193.601,33.505,35.5764,,193.601,95.4246,0.876225,87.6225,82.1885
195.453,27.063,30.3191,,195.453,33.504,35.1224,,195.453,80.7754,0.863243,86.3243,82.1298
197.304,32.426,30.5844,,197.304,32.14,34.8236,,197.304,100.89,0.878265,87.8265,82.8944
199.156,26.062,29.6389,,199.156,31.503,33.8949,,199.156,82.7286,0.874435,87.4435,85.0375
201.008,26.971,27.4537,,201.008,34.684,33.8897,,201.008,77.7621,0.810089,81.0089,85.8782
202.86,32.97,29.4288,,202.86,34.683,34.1697,,202.86,95.061,0.861255,86.1255,85.8193
204.711,32.606,31.5652,,204.711,35.227,35.1271,,204.711,92.5597,0.898599,89.8599,86.0136
206.563,37.878,33.0153,,206.563,32.136,34.3423,,206.563,117.868,0.961362,96.1362,87.4424
208.415,37.787,35.8415,,208.415,36.68,34.8728,,208.415,103.018,1.02778,102.778,89.8727
210.267,27.968,33.8007,,210.267,34.316,35.8565,,210.267,81.5013,0.942666,94.2666,92.2756
212.118,32.15,31.5052,,212.118,32.679,35.2305,,212.118,98.3812,0.894261,89.4261,93.797
213.97,27.695,30.5841,,213.97,29.859,33.8215,,213.97,92.7526,0.90428,90.428,94.2451
215.822,26.422,28.7137,,215.822,29.859,31.0561,,215.822,88.4892,0.924575,92.4575,94.2489
217.673,25.967,27.5398,,217.673,35.858,33.0981,,217.673,72.4162,0.832066,83.2066,91.6352
219.525,27.875,27.7505,,219.525,29.402,33.5853,,219.525,94.8065,0.826268,82.6268,88.2029
221.377,27.056,28.8508,,221.377,33.31,32.2544,,221.377,81.2249,0.894476,89.4476,87.6375
223.229,24.874,26.9325,,223.229,37.764,34.2879,,223.229,65.867,0.785482,78.5482,86.2096
225.08,29.965,26.973,,225.08,38.763,35.4599,,225.08,77.3031,0.760663,76.0663,83.3205
226.932,32.419,28.9221,,226.932,38.217,37.2011,,226.932,84.8287,0.777454,77.7454,81.1088
228.784,32.964,30.1844,,228.784,32.761,36.0345,,228.784,100.62,0.837654,83.7654,81.1235
230.636,32.236,31.4974,,230.636,29.397,34.1797,,230.636,109.657,0.921524,92.1524,81.8209
232.487,31.599,31.6958,,232.487,33.214,33.1807,,232.487,95.1376,0.955248,95.5248,83.6904
234.339,33.599,32.5608,,234.339,34.304,34.4358,,234.339,97.9448,0.945551,94.5551,87.163
236.191,33.053,33.2082,,236.191,27.485,31.4748,,236.191,120.258,1.05507,105.507,91.7771
238.043,34.052,32.992,,238.043,35.848,30.3274,,238.043,94.99,1.08786,108.786,97.4183
239.894,41.142,33.7016,,239.894,44.574,35.5211,,239.894,92.3004,0.948777,94.8777,99.5518
241.746,51.687,39.8501,,241.746,53.482,42.8589,,241.746,96.6437,0.929798,92.9798,99.4221
243.598,54.505,46.3691,,243.598,62.208,50.6793,,243.598,87.6173,0.914951,91.4951,99.0245
245.449,63.232,52.4534,,245.449,62.662,56.7962,,245.449,100.91,0.923537,92.3537,97.8389
247.301,67.504,58.8281,,247.301,66.025,60.0306,,247.301,102.24,0.979968,97.9968,95.524
249.153,68.14,62.2416,,249.153,75.569,66.0606,,249.153,90.1692,0.942189,94.2189,94.2897
251.005,66.594,65.3621,,251.005,79.023,71.749,,251.005,84.2717,0.910983,91.0983,93.8722
252.856,69.139,67.2002,,252.856,77.567,74.9429,,252.856,89.1346,0.896685,89.6685,93.2446
254.681,74.502,69.5143,,254.681,79.021,76.3829,,254.681,94.2813,0.910076,91.0076,93.0822
256.513,76.41,72.8456,,256.513,83.292,79.0528,,256.513,91.7375,0.921479,92.1479,92.453
258.347,72.865,73.356,,258.347,84.019,82.1099,,258.347,86.7244,0.893388,89.3388,91.059
260.181,74.137,74.0115,,260.181,84.472,83.6374,,260.181,87.7652,0.884909,88.4909,90.1443
262.017,79.682,74.7207,,262.017,81.108,83.7727,,262.017,98.2419,0.891945,89.1945,89.8485
263.853,82.136,78.4186,,263.853,85.197,83.7059,,263.853,96.4072,0.936834,93.6834,90.3572
265.691,76.862,79.4716,,265.691,83.469,84.7439,,265.691,92.0845,0.937786,93.7786,90.8243
267.53,77.134,77.3774,,267.53,78.923,83.0577,,267.53,97.7332,0.93161,93.161,91.2219
269.369,81.679,78.035,,269.369,82.013,82.1681,,269.369,99.5927,0.9497,94.97,92.3128
271.21,79.497,79.1753,,271.21,81.648,82.5729,,271.21,97.3655,0.958854,95.8854,93.6833
273.052,77.496,79.186,,273.052,78.374,81.0571,,273.052,98.8797,0.976916,97.6916,94.7736
274.895,76.86,78.2546,,274.895,79.009,79.5774,,274.895,97.2801,0.983378,98.3378,95.552
276.739,79.404,77.9203,,276.739,83.554,81.013,,276.739,95.0332,0.961825,96.1825,96.2349
278.584,76.131,77.8239,,278.584,79.462,81.556,,278.584,95.8081,0.954239,95.4239,96.5148
280.431,74.676,76.4506,,280.431,84.461,81.9941,,280.431,88.4148,0.932391,93.2391,96.2916
282.278,74.857,76.0733,,282.278,87.55,84.3235,,282.278,85.502,0.902161,90.2161,95.2599
284.126,78.493,76.4912,,284.126,87.549,85.4577,,284.126,89.6561,0.895077,89.5077,93.6589
285.976,81.856,78.2861,,285.976,89.821,87.2231,,285.976,91.1324,0.897538,89.7538,92.1822
287.826,87.31,81.7984,,287.826,86.82,87.5194,,287.826,100.564,0.934632,93.4632,91.4941
289.678,79.219,82.775,,289.678,88.001,87.5632,,289.678,90.0206,0.945317,94.5317,91.4308
291.531,81.491,80.8758,,291.531,82.999,86.9141,,291.531,98.1831,0.930526,93.0526,91.6143
293.385,84.399,81.9751,,293.385,86.544,86.0818,,293.385,97.5215,0.952293,95.2293,92.5869
295.239,81.489,83.0101,,295.239,83.452,86.6223,,295.239,97.6477,0.9583,95.83,93.7064
297.095,72.58,79.715,,297.095,80.632,83.1922,,297.095,90.0139,0.958203,95.8203,94.6546
298.952,78.488,76.6307,,298.952,84.904,83.8708,,298.952,92.4432,0.913675,91.3675,94.2303
300.81,79.488,78.0018,,300.81,81.721,82.882,,300.81,97.2675,0.941119,94.1119,94.1707
302.669,79.851,78.4221,,302.669,90.811,84.7768,,302.669,87.931,0.925042,92.5042,94.0325
304.53,81.85,78.9703,,304.53,88.537,86.7993,,304.53,92.4472,0.909803,90.9803,93.2353
306.391,82.849,79.406,,306.391,85.536,86.9114,,306.391,96.8586,0.913644,91.3644,92.3919
308.253,80.031,79.7255,,308.253,82.171,84.5328,,308.253,97.3957,0.94313,94.313,92.3976
310.117,81.575,80.4276,,310.117,84.624,82.3974,,310.117,96.397,0.976094,97.6094,93.2782
311.981,84.484,82.817,,311.981,90.623,85.0406,,311.981,93.2258,0.973852,97.3852,93.9144
313.847,75.12,81.9325,,313.847,85.258,86.5371,,313.847,88.109,0.946791,94.6791,94.6614
315.713,78.392,79.3775,,315.713,86.621,85.0832,,315.713,90.5,0.93294,93.294,95.062
317.581,78.845,79.8794,,317.581,89.074,85.5077,,317.581,88.5163,0.934178,93.4178,95.1268
319.45,78.754,79.2404,,319.45,86.709,86.1281,,319.45,90.8256,0.92003,92.003,94.3783
321.319,81.299,79.595,,321.319,85.071,85.8514,,321.319,95.5661,0.927126,92.7126,93.3239
323.19,84.662,81.7694,,323.19,89.525,86.5611,,323.19,94.568,0.944644,94.4644,92.8873
325.062,77.388,82.2484,,325.062,82.524,87.1706,,325.062,93.7764,0.943534,94.3534,92.9744
326.935,79.206,79.8777,,326.935,88.25,86.2735,,326.935,89.7518,0.925866,92.5866,92.9831
328.809,85.66,81.5155,,328.809,91.521,87.842,,328.809,93.596,0.927979,92.7979,93.0053
330.685,84.477,83.2094,,330.685,97.156,91.0015,,330.685,86.9499,0.914374,91.4374,93.1051
332.561,84.204,84.3181,,332.561,89.337,92.2346,,332.561,94.2543,0.914169,91.4169,92.6728
334.438,77.839,82.8947,,334.438,91.608,90.0201,,334.438,84.9697,0.920846,92.0846,92.3318
336.316,84.93,81.7821,,336.316,91.879,91.5528,,336.316,92.4368,0.893278,89.3278,91.5921
338.196,80.111,82.7306,,338.196,87.424,90.232,,338.196,91.635,0.916866,91.6866,91.2997
340.076,82.292,81.5079,,340.076,90.422,89.0709,,340.076,91.0088,0.91509,91.509,91.0589
341.958,88.018,83.7938,,341.958,88.694,88.8436,,341.958,99.2378,0.943161,94.3161,91.3907
343.84,80.836,83.4805,,343.84,88.42,88.2726,,343.84,91.4228,0.945713,94.5713,91.8121
345.724,79.562,80.3012,,345.724,94.418,90.3649,,345.724,84.2657,0.888633,88.8633,91.8662
347.609,88.752,82.0328,,347.609,94.789,93.2687,,347.609,93.6311,0.879532,87.9532,91.4444
349.495,87.469,85.1261,,349.495,91.155,93.6846,,349.495,95.9563,0.908646,90.8646,91.2046
351.382,89.214,86.9368,,351.382,90.863,92.7503,,351.382,98.1852,0.937321,93.7321,91.4029
353.269,84.615,87.3626,,353.269,93.89,92.5566,,353.269,90.1214,0.943883,94.3883,91.3938
355.158,88.793,87.1184,,355.158,91.527,92.7964,,355.158,97.0129,0.938812,93.8812,91.6255
357.048,88.243,88.9285,,357.048,92.684,93.1377,,357.048,95.2085,0.954806,95.4806,92.9912
358.94,89.547,88.4988,,358.94,95.218,94.2336,,358.94,94.0442,0.939143,93.9143,93.9339
360.832,91.724,89.7027,,360.832,96.431,95.4034,,360.832,95.1188,0.940245,94.0245,94.2916
362.725,94.945,92.0383,,362.725,93.62,95.0673,,362.725,101.415,0.968137,96.8137,94.5366
364.619,94.99,94.7989,,364.619,105.359,96.5883,,364.619,90.1584,0.981474,98.1474,95.446
366.515,93.844,94.1764,,366.515,104.282,101.133,,366.515,89.9906,0.931211,93.1211,95.3622
368.411,102.007,95.3882,,368.411,101.47,101.551,,368.411,100.529,0.939311,93.9311,95.0472
370.308,98.038,97.9788,,370.308,97.975,100.897,,370.308,100.064,0.971076,97.1076,95.4938
372.207,93.89,95.9897,,372.207,105.848,101.347,,372.207,88.7027,0.947138,94.7138,95.674
374.107,97.347,95.811,,374.107,105.608,103.386,,374.107,92.1777,0.926733,92.6733,94.6833
376.007,98.778,97.0505,,376.007,106.189,104.33,,376.007,93.0209,0.930224,93.0224,94.1628
377.909,91.937,96.3832,,377.909,105.226,104.795,,377.909,87.371,0.91973,91.973,94.0621
379.812,98.717,95.8788,,379.812,111.582,106.882,,379.812,88.4704,0.897049,89.7049,93.0785
381.716,101.828,98.968,,381.716,114.291,109.895,,381.716,89.0954,0.900572,90.0572,91.7756
383.62,102.017,100.781,,383.62,112.097,112.163,,383.62,91.0078,0.898527,89.8527,91.1487
385.526,102.183,100.766,,385.526,116.28,112.79,,385.526,87.8767,0.893393,89.3393,90.5504
387.433,107.193,102.754,,387.433,115.424,114.342,,387.433,92.8689,0.898658,89.8658,89.9771
389.341,114.911,107.39,,389.341,119.767,115.64,,389.341,95.9455,0.928659,92.8659,90.1895
391.25,125.785,114.634,,391.25,130.241,120.838,,391.25,96.5787,0.948664,94.8664,91.0682
393.161,134.986,122.541,,393.161,141.583,128.167,,393.161,95.3405,0.956109,95.6109,92.0854
395.072,153.138,132.669,,395.072,162.278,140.311,,395.072,94.3677,0.945533,94.5533,93.0568
396.984,178.129,148.989,,396.984,184.699,157.71,,396.984,96.4429,0.944707,94.4707,93.9987
398.897,218.25,172.379,,398.897,227.497,182.636,,398.897,95.9353,0.943837,94.3837,94.6536
400.812,276.616,209.682,,400.812,289.932,221.57,,400.812,95.4072,0.946347,94.6347,94.7946
402.727,375.977,267.502,,402.727,375.612,277.644,,402.727,100.097,0.963471,96.3471,94.8914
404.644,529.588,361.8,,404.644,524.35,364.121,,404.644,100.999,0.993625,99.3625,95.5308
406.561,747.794,501.452,,406.561,752.631,501.419,,406.561,99.3573,1.00006,100.006,96.6029
408.48,1094.568,712.735,,408.48,1090.276,712.968,,408.48,100.394,0.999674,99.9674,97.6097
410.4,1602.539,1034.37,,410.4,1576.714,1024.69,,410.4,101.638,1.00945,100.945,98.7634
412.32,2329.307,1504.62,,412.32,2292.428,1484.04,,412.32,101.609,1.01386,101.386,99.9018
414.242,3356.657,2180.64,,414.242,3303.056,2146.55,,414.242,101.623,1.01588,101.588,100.609
416.165,4775.636,3132.86,,416.165,4719.128,3089.8,,416.165,101.197,1.01393,101.393,100.911
418.089,6711.61,4459.27,,418.089,6623.23,4399.73,,418.089,101.334,1.01353,101.353,101.186
420.014,9232.18,6249.75,,420.014,9137.17,6168.31,,420.014,101.04,1.0132,101.32,101.375
421.939,12434.72,8589.34,,421.939,12355.714,8501.15,,421.939,100.639,1.01037,101.037,101.367
423.866,16345.208,11555.7,,423.866,16253.351,11472.2,,423.866,100.565,1.00728,100.728,101.235
425.795,21042.039,15215.2,,425.795,20920.267,15116.3,,425.795,100.582,1.00654,100.654,101.072
427.724,26437.53,19598.6,,427.724,26342.847,19491.6,,427.724,100.359,1.00549,100.549,100.925
429.654,32516.405,24674.1,,429.654,32472.644,24593,,429.654,100.135,1.0033,100.33,100.745
431.585,39421.533,30486.1,,431.585,39466.603,30450.9,,431.585,99.8858,1.00116,100.116,100.551
433.517,46980.496,37044.2,,433.517,47212.176,37095.6,,433.517,99.5093,0.998615,99.8615,100.374
435.451,57466.791,44796.3,,435.451,57567.013,44916.7,,435.451,99.8259,0.997321,99.7321,100.195
437.385,64000,53455,,437.385,64000,53518.3,,437.385,100,0.998817,99.8817,100.046
439.32,64000,58956.4,,439.32,64000,58986.7,,439.32,100,0.999487,99.9487,99.9463
441.257,64000,61587.6,,441.257,64000,61602.1,,441.257,100,0.999765,99.9765,99.895
443.194,63716.267,62804.9,,443.194,63787.125,62827.3,,443.194,99.8889,0.999644,99.9644,99.8863
445.133,62754.921,63067.7,,445.133,62883.234,63135.6,,445.133,99.796,0.998925,99.8925,99.9138
447.072,61108.338,62530.2,,447.072,61142.14,62615.5,,447.072,99.9447,0.998638,99.8638,99.9292
449.013,57457.007,61005.8,,449.013,56984.331,60958,,449.013,100.829,1.00078,100.078,99.9435
450.955,50008.548,57405,,450.955,48943.691,56974.3,,450.955,102.176,1.00756,100.756,100.052
452.897,41184.804,51264.2,,452.897,40056.044,50478,,452.897,102.818,1.01558,101.558,100.31
454.841,33721.4,44020.1,,454.841,32726.301,43097.4,,454.841,103.041,1.02141,102.141,100.699
456.786,27986.718,37111.1,,456.786,27131.96,36193.8,,456.786,103.15,1.02535,102.535,101.184
458.732,23553.898,31174.3,,458.732,22827.2,30323.6,,458.732,103.183,1.02805,102.805,101.717
460.679,19988.292,26259,,460.679,19324.818,25488.8,,460.679,103.433,1.03021,103.021,102.213
462.627,16979.025,22202,,462.627,16380.89,21505.9,,462.627,103.651,1.03237,103.237,102.603
464.576,14365.749,18795,,464.576,13857.231,18175.3,,464.576,103.67,1.0341,103.41,102.894
466.526,12187.123,15914.2,,466.526,11729.578,15364,,466.526,103.901,1.03581,103.581,103.123
468.477,10378.797,13493.3,,468.477,9995.534,13006.5,,468.477,103.834,1.03743,103.743,103.319
470.429,8969.569,11490.2,,470.429,8656.172,11077,,470.429,103.621,1.0373,103.73,103.479
472.382,7907.188,9889.67,,472.382,7635.598,9541.11,,472.382,103.557,1.03653,103.653,103.585
474.336,7106.463,8641.25,,474.336,6854.628,8338.67,,474.336,103.674,1.03629,103.629,103.644
476.292,6486.963,7675.24,,476.292,6260.377,7405.36,,476.292,103.619,1.03644,103.644,103.672
478.248,6020.722,6929.51,,478.248,5803.889,6686.65,,478.248,103.736,1.03632,103.632,103.668
480.205,5653.687,6355.42,,480.205,5461.718,6135.55,,480.205,103.515,1.03583,103.583,103.641
482.164,5417.717,5922.46,,482.164,5237.861,5720.76,,482.164,103.434,1.03526,103.526,103.612
484.123,5344.15,5633.6,,484.123,5160.507,5444.05,,484.123,103.559,1.03482,103.482,103.584
486.083,5410.356,5493.96,,486.083,5228.466,5308.26,,486.083,103.479,1.03498,103.498,103.557
488.045,5648.405,5502.91,,488.045,5480.019,5324.94,,488.045,103.073,1.03342,103.342,103.511
490.007,6057.749,5675.18,,490.007,5891.004,5504.92,,490.007,102.831,1.03093,103.093,103.425
491.971,6634.672,6015.4,,491.971,6468.471,5846.97,,491.971,102.569,1.02881,102.881,103.309
493.936,7358.868,6516.74,,493.936,7190.779,6348.99,,493.936,102.338,1.02642,102.642,103.161
495.901,8239.371,7175.55,,495.901,8029.417,6994.04,,495.901,102.615,1.02595,102.595,102.991
497.868,9238.636,7979.02,,497.868,9011.373,7778.88,,497.868,102.522,1.02573,102.573,102.829
499.836,10366.658,8918.03,,499.836,10104.749,8696.37,,499.836,102.592,1.02549,102.549,102.698
501.804,11517.216,9965.83,,501.804,11270.159,9726.87,,501.804,102.192,1.02457,102.457,102.602
503.774,12717.807,11078.4,,503.774,12464.423,10834.2,,503.774,102.033,1.02253,102.253,102.514
505.745,13983.078,12255.3,,505.745,13673.219,11989.4,,505.745,102.266,1.02218,102.218,102.44
507.717,15196.134,13469.2,,507.717,14872.93,13172.9,,507.717,102.173,1.02249,102.249,102.373
509.69,16409.687,14674.9,,509.69,16056.998,14363.8,,509.69,102.196,1.02166,102.166,102.303
511.664,17615.562,15888.1,,511.664,17217.394,15546.2,,511.664,102.313,1.022,102.2,102.238
513.639,18709.093,17074.3,,513.639,18283.309,16693.9,,513.639,102.329,1.02279,102.279,102.217
515.615,19722.718,18189.9,,515.615,19258.438,17775.9,,515.615,102.411,1.02329,102.329,102.236
517.592,20626.486,19225.7,,517.592,20128.144,18776.6,,517.592,102.476,1.02392,102.392,102.263
519.57,21413.716,20159.7,,519.57,20880.749,19677.7,,519.57,102.552,1.02449,102.449,102.307
521.549,22131.08,21001.2,,521.549,21567.103,20481.6,,521.549,102.615,1.02537,102.537,102.371
523.529,22765.012,21756.7,,523.529,22195.328,21213.8,,523.529,102.567,1.02559,102.559,102.432
525.51,23277.68,22420.4,,525.51,22691.129,21857.8,,525.51,102.585,1.02574,102.574,102.483
527.493,23651.529,22965.6,,527.493,23058.875,22393.1,,527.493,102.57,1.02557,102.557,102.521
529.476,23946.003,23402.8,,529.476,23304.066,22803.7,,529.476,102.755,1.02627,102.627,102.555
531.46,24096.272,23728.9,,531.46,23470.938,23114.7,,531.46,102.664,1.02657,102.657,102.587
533.446,24191.865,23948.9,,533.446,23511.018,23315.5,,533.446,102.896,1.02717,102.717,102.613
535.432,24231.234,24088.5,,535.432,23522.14,23420.3,,535.432,103.015,1.02853,102.853,102.66
537.419,24193.508,24153.6,,537.419,23550.666,23479.6,,537.419,102.73,1.02871,102.871,102.72
539.408,24165.167,24168.3,,539.408,23514.322,23508.5,,539.408,102.768,1.02806,102.806,102.766
541.397,24108.089,24159.9,,541.397,23421.676,23487.5,,541.397,102.931,1.02863,102.863,102.801
543.388,23994.254,24109.1,,543.388,23308.611,23427,,543.388,102.942,1.02911,102.911,102.843
545.379,23884.752,24022.3,,545.379,23191.606,23337.7,,545.379,102.989,1.02934,102.934,102.871
547.372,23770.633,23922.4,,547.372,23067.082,23233,,547.372,103.05,1.02967,102.967,102.885
549.365,23611.085,23804.2,,549.365,22873.453,23102.2,,549.365,103.225,1.03039,103.039,102.919
551.36,23424.669,23656,,551.36,22657.524,22929.7,,551.36,103.386,1.03168,103.168,102.978
553.356,23175.452,23468.9,,553.356,22458.012,22738.3,,553.356,103.195,1.03213,103.213,103.041
555.352,22945.46,23253.1,,555.352,22260.207,22544.8,,555.352,103.078,1.03142,103.142,103.089
557.35,22678.301,23031.6,,557.35,21989.908,22330.1,,557.35,103.13,1.03141,103.141,103.125
559.349,22424.235,22780.5,,559.349,21709.137,22080.9,,559.349,103.294,1.03168,103.168,103.155
561.348,22157.452,22527.4,,561.348,21446.354,21819.4,,561.348,103.316,1.03245,103.245,103.18
563.349,21806.461,22241.9,,563.349,21149.204,21549.7,,563.349,103.108,1.03212,103.212,103.185
565.351,21487.631,21932.6,,565.351,20809.542,21256.4,,565.351,103.259,1.03181,103.181,103.185
567.354,21118.126,21607.8,,567.354,20445.19,20936.2,,567.354,103.291,1.03208,103.208,103.199
569.358,20782.355,21272.6,,569.358,20090.264,20589.1,,569.358,103.445,1.0332,103.32,103.226
571.363,20346.594,20913.2,,571.363,19686.427,20228.3,,571.363,103.353,1.03386,103.386,103.259
573.368,19977.793,20526.3,,573.368,19315.428,19846,,573.368,103.429,1.03428,103.428,103.29
575.375,19590.002,20145.5,,575.375,18986.807,19488.9,,575.375,103.177,1.03369,103.369,103.328
577.383,19201.639,19759.4,,577.383,18574.161,19122.9,,577.383,103.378,1.03329,103.329,103.353
579.392,18777.525,19364.1,,579.392,18171.353,18727.8,,579.392,103.336,1.03398,103.398,103.375
581.402,18328.095,18941,,581.402,17776.569,18343.2,,581.402,103.103,1.03259,103.259,103.366
583.413,17922.06,18517.4,,583.413,17345.495,17939.5,,583.413,103.324,1.03221,103.221,103.333
585.425,17491.758,18101,,585.425,16927.19,17522,,585.425,103.335,1.03304,103.304,103.308
587.439,17043.294,17672,,587.439,16478.458,17098.9,,587.439,103.428,1.03352,103.352,103.307
589.453,16564.742,17224.2,,589.453,16021.565,16657.7,,589.453,103.39,1.034,103.4,103.312
591.468,16125.313,16766,,591.468,15595.936,16217,,591.468,103.394,1.03386,103.386,103.319
593.484,15700.088,16330.3,,593.484,15135.761,15776.2,,593.484,103.728,1.03513,103.513,103.363
595.501,15188.333,15874.3,,595.501,14661.348,15320.5,,595.501,103.594,1.03615,103.615,103.425
597.519,14687.51,15386.7,,597.519,14208.392,14858.6,,597.519,103.372,1.03554,103.554,103.474
599.539,14208.787,14898.2,,599.539,13742.769,14406.5,,599.539,103.391,1.03413,103.413,103.488
601.559,13746.802,14423.8,,601.559,13250.632,13937.9,,601.559,103.745,1.03486,103.486,103.5
603.58,13255.278,13944.2,,603.58,12766.031,13456.8,,603.58,103.832,1.03622,103.622,103.532
605.602,12784.246,13468.9,,605.602,12339.477,12986.6,,605.602,103.604,1.03714,103.714,103.558
607.626,12293.062,12985.7,,607.626,11850.801,12526.1,,607.626,103.732,1.0367,103.67,103.575
609.65,11811.406,12499.7,,609.65,11365.108,12046.9,,609.65,103.927,1.03759,103.759,103.621
611.675,11336.014,12017.8,,611.675,10930.839,11580.6,,611.675,103.707,1.03775,103.775,103.689
613.702,10850.362,11537.1,,613.702,10480.543,11125.3,,613.702,103.529,1.03702,103.702,103.722
615.729,10416.301,11067.4,,615.729,10058.86,10678.5,,615.729,103.553,1.03643,103.643,103.717
617.757,9984.786,10621.5,,617.757,9626.625,10242.3,,617.757,103.721,1.03703,103.703,103.713
619.787,9521.764,10171.1,,619.787,9178.597,9804.92,,619.787,103.739,1.03735,103.735,103.717
621.817,9089.831,9718.75,,621.817,8739.57,9363.02,,621.817,104.008,1.03799,103.799,103.715
623.849,8693.524,9292.14,,623.849,8378.301,8944.18,,623.849,103.762,1.0389,103.89,103.738
625.881,8284.573,8878.4,,625.881,8018.036,8559.97,,625.881,103.324,1.0372,103.72,103.761
627.915,7899.906,8468.07,,627.915,7612.591,8173.49,,627.915,103.774,1.03604,103.604,103.754
629.949,7545.917,8078.85,,629.949,7253.439,7787.88,,629.949,104.032,1.03736,103.736,103.752
631.985,7168.079,7704.11,,631.985,6920.723,7425.09,,631.985,103.574,1.03758,103.758,103.757
634.021,6829.045,7337.95,,634.021,6588.839,7077.77,,634.021,103.646,1.03676,103.676,103.729
636.059,6490.218,6989.39,,636.059,6255.693,6735.87,,636.059,103.749,1.03764,103.764,103.709
638.098,6166.109,6647.16,,638.098,5940.561,6402.08,,638.098,103.797,1.03828,103.828,103.74
640.137,5848.327,6314.08,,640.137,5647.062,6082.74,,640.137,103.564,1.03803,103.803,103.767
642.178,5537.653,5990.58,,642.178,5351.739,5777.91,,642.178,103.474,1.03681,103.681,103.753
644.219,5252.765,5681.39,,644.219,5077.458,5483.36,,644.219,103.453,1.03611,103.611,103.735
646.262,4973.489,5387.32,,646.262,4811.13,5203.37,,646.262,103.375,1.03535,103.535,103.704
648.306,4705.623,5104.68,,648.306,4540.322,4928.5,,648.306,103.641,1.03575,103.575,103.657
650.35,4445.244,4830.03,,650.35,4299.885,4664.42,,650.35,103.381,1.03551,103.551,103.608
652.396,4193.436,4564.71,,652.396,4069.196,4416.55,,652.396,103.053,1.03355,103.355,103.546
654.443,3968.928,4314.15,,654.443,3845.692,4178.94,,654.443,103.205,1.03235,103.235,103.472
656.49,3747.044,4077.83,,656.49,3614.831,3945.61,,656.49,103.658,1.03351,103.351,103.422
658.539,3533.303,3850.17,,658.539,3395.884,3715.16,,658.539,104.047,1.03634,103.634,103.424
660.589,3321.138,3628.12,,660.589,3212.113,3501.78,,660.589,103.394,1.03608,103.608,103.438
662.64,3124.87,3416.58,,662.64,3008.504,3299.99,,662.64,103.868,1.03533,103.533,103.451
664.691,2933.256,3214.96,,664.691,2825.846,3101.62,,664.691,103.801,1.03654,103.654,103.516
666.744,2757.913,3023.14,,666.744,2665.607,2917.05,,666.744,103.463,1.03637,103.637,103.591
668.798,2594.453,2843.47,,668.798,2508.898,2745.46,,668.798,103.41,1.0357,103.57,103.614
670.853,2427.488,2670.25,,670.853,2354.692,2582.3,,670.853,103.092,1.03406,103.406,103.574
672.909,2288.693,2506.13,,672.909,2213.672,2427.68,,672.909,103.389,1.03231,103.231,103.52
674.965,2142.716,2356.43,,674.965,2086.494,2283.43,,674.965,102.695,1.03197,103.197,103.449
677.023,2010.882,2210.37,,677.023,1964.424,2148.24,,677.023,102.365,1.02892,102.892,103.318
679.082,1898.061,2079.06,,679.082,1847.565,2022.54,,679.082,102.733,1.02794,102.794,103.164
681.142,1781.822,1954.47,,681.142,1737.729,1903.79,,681.142,102.537,1.02662,102.662,103.011
683.203,1668.076,1833.33,,683.203,1629.665,1789.43,,683.203,102.357,1.02453,102.453,102.858
685.265,1563.675,1719.48,,685.265,1520.884,1678.67,,685.265,102.814,1.02431,102.431,102.702
687.327,1468.256,1613.1,,687.327,1427.089,1572.32,,687.327,102.885,1.02594,102.594,102.602
689.391,1379.835,1517.57,,689.391,1342.555,1474.85,,689.391,102.777,1.02897,102.897,102.605
691.456,1292.13,1423.57,,691.456,1266.909,1386.44,,691.456,101.991,1.02678,102.678,102.61
693.522,1219.473,1336.41,,693.522,1181.382,1302.62,,693.522,103.224,1.02594,102.594,102.612
695.589,1147.786,1256.31,,695.589,1099.399,1217.94,,695.589,104.401,1.0315,103.15,102.721
697.657,1076.262,1181.8,,697.657,1034.453,1139.18,,697.657,104.042,1.03741,103.741,102.937
699.726,993.647,1105.1,,699.726,971.408,1066.88,,699.726,102.289,1.03582,103.582,103.117
701.796,938.247,1031.43,,701.796,917.503,1001.66,,701.796,102.261,1.02972,102.972,103.172
703.867,879.858,969.028,,703.867,861.064,943.417,,703.867,102.183,1.02715,102.715,103.208
705.939,821.212,906.983,,705.939,804.537,885.41,,705.939,102.073,1.02437,102.437,103.149
708.012,770.572,849.168,,708.012,759.323,831.585,,708.012,101.481,1.02114,102.114,102.906
710.085,727.298,796.796,,710.085,719.139,783.449,,710.085,101.135,1.01704,101.704,102.533
712.16,682.299,748.943,,712.16,670.14,738.668,,712.16,101.814,1.01391,101.391,102.185
714.236,641.453,702.834,,714.236,626.682,690.974,,714.236,102.357,1.01716,101.716,101.954
716.313,604.536,661.789,,716.313,586.621,647.561,,716.313,103.054,1.02197,102.197,101.856
718.391,571.144,622.636,,718.391,553.42,606.872,,718.391,103.203,1.02598,102.598,101.899
720.47,536.096,586.15,,720.47,515.553,569.744,,720.47,103.985,1.0288,102.88,102.069
722.55,500.895,550.614,,722.55,489.289,534.375,,722.55,102.372,1.03039,103.039,102.36
724.631,468.517,516.457,,724.631,456.046,503.092,,724.631,102.735,1.02657,102.657,102.591
726.713,433.858,482.647,,726.713,427.384,471.345,,726.713,101.515,1.02398,102.398,102.692
728.796,408.054,449.892,,728.796,406.484,444.036,,728.796,100.386,1.01319,101.319,102.551
730.88,388.605,423.576,,730.88,378.822,417.772,,730.88,102.582,1.01389,101.389,102.283
732.965,360.797,398.333,,732.965,361.79,392.676,,732.965,99.7255,1.01441,101.441,102.004
735.051,343.371,374.531,,735.051,344.187,371.911,,735.051,99.7629,1.00705,100.705,101.625
737.138,324.61,353.744,,737.138,327.822,352.608,,737.138,99.0202,1.00322,100.322,101.216
739.226,306.464,333.47,,739.226,309.223,335.6,,739.226,99.1078,0.993655,99.3655,100.77
741.315,295.962,316.69,,741.315,291.064,317.051,,741.315,101.683,0.998863,99.8863,100.462
743.405,277.916,301.453,,743.405,276.402,299.691,,743.405,100.548,1.00588,100.588,100.264
745.496,267.784,285.92,,745.496,267.689,285.57,,745.496,100.035,1.00123,100.123,100.125
747.588,256.314,274.46,,747.588,249.668,272.766,,747.588,102.662,1.00621,100.621,100.119
749.681,240.274,261.567,,749.681,240.994,258.037,,749.681,99.7012,1.01368,101.368,100.39
751.775,232.238,248.935,,751.775,237.1,248.653,,751.775,97.9494,1.00113,100.113,100.598
753.87,221.422,237.148,,753.87,228.541,240.406,,753.87,96.885,0.98645,98.645,100.329
755.966,213.454,226.334,,755.966,222.743,232.847,,755.966,95.8297,0.972029,97.2029,99.7952
758.063,208.062,217.522,,758.063,209.387,224.581,,758.063,99.3672,0.968569,96.8569,99.1286
760.161,200.54,211.025,,760.161,198.162,212.747,,760.161,101.2,0.991901,99.1901,98.6305
762.26,190.787,201.163,,762.26,193.657,204.219,,762.26,98.518,0.985038,98.5038,98.2444
764.36,189.022,194.263,,764.36,185.172,196.9,,764.36,102.079,0.986608,98.6608,98.0912
766.461,182.507,188.443,,766.461,185.015,190.823,,766.461,98.6444,0.987528,98.7528,98.2618
768.562,174.276,183.697,,768.562,177.598,186.254,,768.562,98.1295,0.98627,98.627,98.6202
770.665,161.067,175.079,,770.665,168.205,179.624,,770.665,95.7564,0.974697,97.4697,98.6462
772.769,160.864,167.683,,772.769,160.362,171.275,,772.769,100.313,0.97903,97.903,98.3696
774.874,157.766,162.995,,774.874,156.442,163.531,,774.874,100.846,0.996724,99.6724,98.5281
776.98,156.035,159.504,,776.98,157.256,159.793,,776.98,99.2236,0.998193,99.8193,98.7296
779.087,150.222,156.084,,779.087,150.343,156.351,,779.087,99.9195,0.998293,99.8293,98.9324
781.195,146.329,152.108,,781.195,140.336,150.312,,781.195,104.27,1.01195,101.195,99.3896
783.304,137.502,147.178,,783.304,142.542,145.898,,783.304,96.4642,1.00877,100.877,100.107
785.414,130.911,140.824,,785.414,141.88,144.517,,785.414,92.2688,0.974442,97.4442,100.022
787.525,130.617,136.082,,787.525,138.395,142.375,,787.525,94.3799,0.955802,95.5802,99.2409
789.637,129.173,132.36,,789.637,135.958,140.064,,789.637,95.0095,0.944996,94.4996,98.2753
791.749,123.934,129.68,,791.749,131.269,136.744,,791.749,94.4122,0.948343,94.8343,97.2543
793.863,123.048,126.4,,793.863,129.371,132.71,,793.863,95.1125,0.952452,95.2452,96.0731
795.978,121.167,125.6,,795.978,126.025,130.387,,795.978,96.1452,0.963286,96.3286,95.4438
798.094,116.544,122.162,,798.094,126.645,128.492,,798.094,92.0242,0.950732,95.0732,95.2677
800.211,115.026,117.747,,800.211,120.724,126.79,,800.211,95.2801,0.928674,92.8674,94.9622
802.329,115.044,116.486,,802.329,125.017,126.006,,802.329,92.0227,0.924444,92.4444,94.5655
804.448,111.809,115.04,,804.448,123.93,125.476,,804.448,90.2195,0.916827,91.6827,93.9847
806.567,116.012,114.313,,806.567,122.311,123.382,,806.567,94.85,0.926493,92.6493,93.3359
808.688,121.775,116.148,,808.688,118.367,122.129,,808.688,102.879,0.951031,95.1031,93.0478
810.81,115.766,117.562,,810.81,125.329,121.378,,810.81,92.3697,0.968562,96.8562,93.6025
812.933,112.142,115.266,,812.933,123.13,122.682,,812.933,91.0761,0.939555,93.9555,93.9288
815.057,120.669,115.637,,815.057,120.642,120.862,,815.057,100.022,0.956767,95.6767,94.3842
817.181,124.344,118.877,,817.181,129.685,123.09,,817.181,95.8816,0.965773,96.5773,95.2387
819.307,128.079,123.209,,819.307,137.701,129.382,,819.307,93.0124,0.952289,95.2289,95.6463
821.434,132.108,126.97,,821.434,141.814,134.579,,821.434,93.1558,0.94346,94.346,95.259
823.562,146.071,132.39,,823.562,150.847,140.696,,823.562,96.8339,0.940962,94.0962,95.0084
825.69,159.029,142.84,,825.69,162.962,148.914,,825.69,97.5866,0.959214,95.9214,95.2433
827.82,177.943,154.953,,827.82,184.395,161.474,,827.82,96.501,0.959611,95.9611,95.2056
829.951,199.642,172.719,,829.951,200.202,177.52,,829.951,99.7203,0.972955,97.2955,95.3376
832.082,211.199,189.949,,832.082,211.484,192.708,,832.082,99.8652,0.985681,98.5681,96.0086
834.215,217.652,202.124,,834.215,217.983,204.276,,834.215,99.8482,0.989466,98.9466,96.8992
836.349,231.372,211.911,,836.349,222.188,211.359,,836.349,104.133,1.00261,100.261,97.8326
838.483,256.981,227.488,,838.483,255.234,223.382,,838.483,100.684,1.01838,101.838,98.8789
840.619,309.002,254.485,,840.619,308.756,252.75,,840.619,100.08,1.00687,100.687,99.7698
842.755,384.227,301.116,,842.755,374.652,296.792,,842.755,102.556,1.01457,101.457,100.362
844.893,466.377,365.491,,844.893,464.696,359.307,,844.893,100.362,1.01721,101.721,100.949
847.032,558.908,440.479,,847.032,557.035,437.958,,847.032,100.336,1.00576,100.576,101.24
849.171,675.147,532.168,,849.171,661.057,525.484,,849.171,102.131,1.01272,101.272,101.188
851.312,777.183,634.057,,851.312,756.098,619.683,,851.312,102.789,1.0232,102.32,101.313
853.453,874.61,733.602,,853.453,857.691,715.358,,853.453,101.973,1.0255,102.55,101.639
855.596,966.603,831.188,,855.596,945.06,813.531,,855.596,102.28,1.0217,102.17,101.728
857.739,1046.675,921.522,,857.739,1009.281,898.409,,857.739,103.705,1.02573,102.573,101.967
859.884,1117.357,1004.22,,859.884,1085.862,977.02,,859.884,102.9,1.02784,102.784,102.36
862.029,1165.634,1074.9,,862.029,1134.54,1048.31,,862.029,102.741,1.02536,102.536,102.522
864.175,1202.038,1131.41,,864.175,1180.224,1104.7,,864.175,101.848,1.02418,102.418,102.526
866.323,1239.832,1176.84,,866.323,1219.693,1154.71,,866.323,101.651,1.01916,101.916,102.47
868.471,1289.834,1222.69,,868.471,1270.779,1200.42,,868.471,101.499,1.01856,101.856,102.391
870.621,1346.352,1271.7,,870.621,1328.341,1250.62,,870.621,101.356,1.01686,101.686,102.194
872.771,1416.168,1327.71,,872.771,1407.639,1310.18,,872.771,100.606,1.01338,101.338,101.957
874.922,1510.85,1396.47,,874.922,1501.233,1383.95,,874.922,100.641,1.00904,100.904,101.664
877.075,1632.19,1486.71,,877.075,1615.768,1472.94,,877.075,101.016,1.00935,100.935,101.42
879.228,1756.167,1594.56,,879.228,1742.694,1578.64,,879.228,100.773,1.01008,101.008,101.256
881.382,1876.325,1709.83,,881.382,1861.847,1694.73,,881.382,100.778,1.00891,100.891,101.095
883.537,1992.118,1827.43,,883.537,1967.351,1809.46,,883.537,101.259,1.00993,100.993,100.981
885.694,2091.532,1939.19,,885.694,2063.009,1916.59,,885.694,101.383,1.01179,101.179,100.98
887.851,2175.246,2040.55,,887.851,2128.935,2010.83,,887.851,102.175,1.01478,101.478,101.07
890.009,2223.937,2124.14,,890.009,2174.289,2085.22,,890.009,102.283,1.01867,101.867,101.219
892.168,2221.091,2178.18,,892.168,2167.414,2133.41,,892.168,102.477,1.02098,102.098,101.423
894.328,2168.859,2189.56,,894.328,2119.476,2141.3,,894.328,102.33,1.02254,102.254,101.671
896.489,2079.339,2156.69,,896.489,2026.271,2108.09,,896.489,102.619,1.02305,102.305,101.9
898.651,1963.371,2087.17,,898.651,1918.326,2037.89,,898.651,102.348,1.02418,102.418,102.111
900.815,1829.314,1987.56,,900.815,1785.282,1942.55,,900.815,102.466,1.02317,102.317,102.241
902.979,1702.015,1871.71,,902.979,1649.08,1825.48,,902.979,103.21,1.02532,102.532,102.33
905.144,1568.012,1748.59,,905.144,1520.884,1700.28,,905.144,103.099,1.02841,102.841,102.446
907.31,1435.811,1620.67,,907.31,1390.411,1573.02,,907.31,103.265,1.03029,103.029,102.578
909.477,1316.033,1493.58,,909.477,1272.518,1446.96,,909.477,103.42,1.03222,103.222,102.73
911.644,1205.903,1373.41,,911.644,1161.269,1326.88,,911.644,103.844,1.03507,103.507,102.924
913.813,1102.139,1259.81,,913.813,1069.772,1215.71,,913.813,103.026,1.03627,103.627,103.157
915.983,1013.946,1155.12,,915.983,988.66,1118.11,,915.983,102.558,1.0331,103.31,103.285
918.154,936.571,1062.71,,918.154,909.367,1029.4,,918.154,102.992,1.03236,103.236,103.341
920.326,866.015,978.881,,920.326,840.982,947.826,,920.326,102.977,1.03276,103.276,103.367
922.499,809.003,904.919,,922.499,785.234,877.373,,922.499,103.027,1.0314,103.14,103.334
924.673,749.901,839.728,,924.673,726.212,813.978,,924.673,103.262,1.03164,103.164,103.246
926.847,690.616,777.975,,926.847,673.645,755.023,,926.847,102.519,1.0304,103.04,103.175
929.023,635.241,718.398,,929.023,616.077,698.139,,929.023,103.111,1.02902,102.902,103.117
931.2,586.774,662.796,,931.2,561.781,640.213,,931.2,104.449,1.03527,103.527,103.131
933.377,545.671,612.438,,933.377,520.304,588.161,,933.377,104.875,1.04128,104.128,103.277
935.556,500.295,565.787,,935.556,473.28,540.136,,935.556,105.708,1.04749,104.749,103.546
937.736,454.282,519.725,,937.736,444.62,497.338,,937.736,102.173,1.04501,104.501,103.835
939.916,417.906,475.307,,939.916,412.505,461.97,,939.916,101.309,1.02887,102.887,103.904
942.098,394.802,438.863,,942.098,382.026,427.176,,942.098,103.344,1.02736,102.736,103.81
944.28,365.152,409.173,,944.28,357.638,396.484,,944.28,102.101,1.032,103.2,103.671
946.464,345.502,381.056,,946.464,338.612,371.382,,946.464,102.035,1.02605,102.605,103.367
948.648,326.943,357.909,,948.648,323.405,350.131,,948.648,101.094,1.02221,102.221,102.899
950.834,306.293,336.3,,950.834,304.379,331.288,,950.834,100.629,1.01513,101.513,102.521
953.02,289.279,317.024,,953.02,291.17,312.93,,953.02,99.3506,1.01308,101.308,102.291
955.207,281.719,300.552,,955.207,282.78,299.394,,955.207,99.6248,1.00387,100.387,101.851
957.396,276.704,290.393,,957.396,274.843,289.202,,957.396,100.677,1.00412,100.412,101.372
959.585,265.508,280.505,,959.585,262.27,278.682,,959.585,101.235,1.00654,100.654,101.02
961.775,254.311,269.582,,961.775,258.151,268.507,,961.775,98.5125,1.004,100.4,100.751
963.966,253.568,260.991,,963.966,254.941,261.316,,963.966,99.4614,0.998755,99.8755,100.438
966.159,248.735,256.281,,966.159,249.184,255.731,,966.159,99.8198,1.00215,100.215,100.275
968.352,249.901,253.108,,968.352,245.245,251.243,,968.352,101.899,1.00742,100.742,100.291
970.546,253.703,253.205,,970.546,243.579,247.699,,970.546,104.156,1.02223,102.223,100.509
972.741,249.686,252.844,,972.741,247.457,246.404,,972.741,100.901,1.02613,102.613,100.874
974.937,250.215,250.896,,974.937,250.154,248.187,,974.937,100.024,1.01091,101.091,101.17
977.134,254.471,251.58,,977.134,255.304,251.319,,977.134,99.6737,1.00104,100.104,101.257
979.332,259.908,254.338,,979.332,259.999,254.524,,979.332,99.965,0.999271,99.9271,101.191
981.531,268.709,259.546,,981.531,265.33,259.407,,981.531,101.274,1.00054,100.054,100.954
983.731,272.601,264.941,,983.731,271.115,263.446,,983.731,100.548,1.00568,100.568,100.559
985.932,281.855,270.941,,985.932,279.717,269.85,,985.932,100.764,1.00405,100.405,100.285
988.134,295.473,281.02,,988.134,288.592,276.398,,988.134,102.384,1.01672,101.672,100.409
990.336,307.091,292.093,,990.336,304.103,287.506,,990.336,100.983,1.01595,101.595,100.753
992.54,325.799,304.734,,992.54,312.703,299.062,,992.54,104.188,1.01897,101.897,101.092
994.745,338.507,319.244,,994.745,332.031,310.388,,994.745,101.95,1.02853,102.853,101.551
996.951,341.67,329.456,,996.951,345.812,325.534,,996.951,98.8022,1.01205,101.205,101.783
999.157,355.922,338.804,,999.157,349.411,336.816,,999.157,101.863,1.0059,100.59,101.708
1001.365,370.72,352.01,,1001.365,361.555,346.187,,1001.365,102.535,1.01682,101.682,101.628
1003.573,380.882,364.324,,1003.573,380.062,358.838,,1003.573,100.216,1.01529,101.529,101.642
1005.783,404.861,378.191,,1005.783,394.568,373.644,,1005.783,102.609,1.01217,101.217,101.393
1007.993,424.476,397.512,,1007.993,413.801,388.537,,1007.993,102.58,1.0231,102.31,101.345
1010.205,445.999,416.766,,1010.205,445.124,410.293,,1010.205,100.197,1.01578,101.578,101.575
1012.417,482.159,441.364,,1012.417,471.173,434.633,,1012.417,102.332,1.01549,101.549,101.635
1014.631,518.137,471.491,,1014.631,504.404,462.228,,1014.631,102.723,1.02004,102.004,101.662
1016.845,563.75,506.682,,1016.845,547.543,494.746,,1016.845,102.96,1.02413,102.413,101.863
1019.06,613.727,548.12,,1019.06,593.226,534.401,,1019.06,103.456,1.02567,102.567,102.011
1021.277,660.703,594.537,,1021.277,641.091,577.026,,1021.277,103.059,1.03035,103.035,102.172
1023.494,687.224,636.403,,1023.494,672.682,618.95,,1023.494,102.162,1.0282,102.82,102.455
1025.712,711.927,669.06,,1025.712,700.636,653.562,,1025.712,101.612,1.02371,102.371,102.6
1027.931,744.357,700.094,,1027.931,723.589,684.128,,1027.931,102.87,1.02334,102.334,102.615
1030.151,764.513,729.578,,1030.151,746.36,710.127,,1030.151,102.432,1.02739,102.739,102.648
1032.372,777.033,751.647,,1032.372,762.675,733.866,,1032.372,101.883,1.02423,102.423,102.595
1034.594,779.643,765.136,,1034.594,772.535,752.162,,1034.594,100.92,1.01725,101.725,102.408
1036.817,794.161,776.234,,1036.817,784.121,766.641,,1036.817,101.28,1.01251,101.251,102.166
1039.041,797.771,786.831,,1039.041,784.706,776.29,,1039.041,101.665,1.01358,101.358,101.989
1041.266,806.197,793.771,,1041.266,789.018,782.075,,1041.266,102.177,1.01495,101.495,101.784
1043.492,808.169,801.025,,1043.492,792.237,785.442,,1043.492,102.011,1.01984,101.984,101.633
1045.718,807.686,803.813,,1045.718,793.002,788.197,,1045.718,101.852,1.01981,101.981,101.592
1047.946,817.475,806.775,,1047.946,792.401,789.724,,1047.946,103.164,1.02159,102.159,101.699
1050.175,818.899,811.896,,1050.175,793.436,791.619,,1050.175,103.209,1.02561,102.561,101.924
1052.405,803.505,811.617,,1052.405,792.47,791.89,,1052.405,101.392,1.02491,102.491,102.146
1054.635,799.838,806.894,,1054.635,785.776,789.36,,1054.635,101.79,1.02221,102.221,102.252
1056.867,790.625,801.993,,1056.867,787.626,786.615,,1056.867,100.381,1.01955,101.955,102.265
1059.099,789.956,796.553,,1059.099,787.384,785.817,,1059.099,100.327,1.01366,101.366,102.167
1061.333,786.105,793.658,,1061.333,773.686,781.92,,1061.333,101.605,1.01501,101.501,101.975
1063.567,777.436,788.137,,1063.567,766.806,775.044,,1063.567,101.386,1.01689,101.689,101.784
1065.802,767.947,781.062,,1065.802,755.742,768.407,,1065.802,101.615,1.01647,101.647,101.649
1068.039,759.004,771.508,,1068.039,747.405,760.279,,1068.039,101.552,1.01477,101.477,101.539
1070.276,761.514,765.657,,1070.276,743.794,753.164,,1070.276,102.382,1.01659,101.659,101.531
1072.514,751.206,761.729,,1072.514,733.181,745.682,,1072.514,102.458,1.02152,102.152,101.677
1074.753,738.897,752.823,,1074.753,730.386,738.361,,1074.753,101.165,1.01959,101.959,101.781
1076.993,731.405,743.214,,1076.993,723.134,732.281,,1076.993,101.144,1.01493,101.493,101.78
1079.234,727.913,735.829,,1079.234,719.154,726.24,,1079.234,101.218,1.0132,101.32,101.736
1081.476,715.965,728.654,,1081.476,701.537,717.852,,1081.476,102.057,1.01505,101.505,101.72
1083.719,711.38,720.963,,1083.719,693.645,707.543,,1083.719,102.557,1.01897,101.897,101.691
1085.963,697.886,712.434,,1085.963,682.57,697.588,,1085.963,102.244,1.02128,102.128,101.671
1088.208,692.573,702.274,,1088.208,679.494,689.411,,1088.208,101.925,1.01866,101.866,101.711
1090.454,683.531,694.402,,1090.454,672.417,683.648,,1090.454,101.653,1.01573,101.573,101.761
1092.772,678.671,687.542,,1092.772,662.701,676.076,,1092.772,102.41,1.01696,101.696,101.815
1094.985,669.992,681.003,,1094.985,655.712,667.492,,1094.985,102.178,1.02024,102.024,101.867
1097.197,662.403,673.378,,1097.197,655.176,661.371,,1097.197,101.103,1.01815,101.815,101.84
1099.409,655.358,665.705,,1099.409,648.729,656.29,,1099.409,101.022,1.01435,101.435,101.738
1101.622,645.313,657.32,,1101.622,643.735,651.077,,1101.622,100.245,1.00959,100.959,101.616
1103.834,637.176,648.685,,1103.834,630.558,644.368,,1103.834,101.05,1.0067,100.67,101.447
1106.047,621.402,638.795,,1106.047,617.47,634.861,,1106.047,100.637,1.0062,100.62,101.217
1108.259,613.9,628.067,,1108.259,604.108,622.5,,1108.259,101.621,1.00894,100.894,100.994
1110.472,612.942,620.663,,1110.472,594.744,610.059,,1110.472,103.06,1.01738,101.738,100.96
1112.684,601.347,614.748,,1112.684,588.197,601.125,,1112.684,102.236,1.02266,102.266,101.126
1114.897,594.388,606.211,,1114.897,576.102,592.421,,1114.897,103.174,1.02328,102.328,101.409
1117.109,587.609,599.342,,1117.109,572.643,583.804,,1117.109,102.613,1.02661,102.661,101.77
1119.321,573.194,589.478,,1119.321,558.727,574.676,,1119.321,102.589,1.02576,102.576,102.132
1121.534,559.141,577.296,,1121.534,542.991,561.379,,1121.534,102.974,1.02835,102.835,102.432
1123.746,548.36,565.504,,1123.746,534.618,550.187,,1123.746,102.57,1.02784,102.784,102.587
1125.959,534.669,554.075,,1125.959,521.969,539.044,,1125.959,102.433,1.02788,102.788,102.685
1128.171,525.886,542.098,,1128.171,512.41,527.379,,1128.171,102.63,1.02791,102.791,102.737
1130.384,517.92,531.758,,1130.384,505.941,517.299,,1130.384,102.368,1.02795,102.795,102.771
1132.596,501.499,520.096,,1132.596,492.015,507.577,,1132.596,101.928,1.02466,102.466,102.745
1134.809,488.804,506.745,,1134.809,476.541,494.825,,1134.809,102.573,1.02409,102.409,102.657
1137.021,472.835,494.335,,1137.021,467.339,482.482,,1137.021,101.176,1.02457,102.457,102.597
1139.233,462.866,480.286,,1139.233,447.226,469.085,,1139.233,103.497,1.02388,102.388,102.517
1141.446,452.714,468.2,,1141.446,436.474,453.839,,1141.446,103.721,1.03164,103.164,102.545
1143.658,440.197,456.959,,1143.658,427.176,442.761,,1143.658,103.048,1.03207,103.207,102.658
1145.871,427.406,444.048,,1145.871,417.603,433.352,,1145.871,102.347,1.02468,102.468,102.729
1148.083,418.706,432.558,,1148.083,406.664,423.006,,1148.083,102.961,1.02258,102.258,102.712
1150.296,395.095,419.125,,1150.296,397.997,412.288,,1150.296,99.2708,1.01658,101.658,102.657
1152.508,388.393,404.27,,1152.508,378.873,399.405,,1152.508,102.513,1.01218,101.218,102.366
1154.721,378.326,394.645,,1154.721,371.929,386.306,,1154.721,101.72,1.02159,102.159,102.12
1156.933,357.258,380.384,,1156.933,362.529,377.74,,1156.933,98.546,1.007,100.7,101.789
1159.145,350.553,366.255,,1159.145,345.945,365.105,,1159.145,101.332,1.00315,100.315,101.384
1161.358,345.756,357.154,,1161.358,337.269,352.556,,1161.358,102.516,1.01304,101.304,101.157
1163.57,333.958,348.726,,1163.57,331.501,343.465,,1163.57,100.741,1.01532,101.532,101.214
1165.783,318.796,337.398,,1165.783,320.367,334.68,,1165.783,99.5096,1.00812,100.812,101.09
1167.995,308.814,325.31,,1167.995,314.595,325.575,,1167.995,98.1624,0.999184,99.9184,100.808
1170.208,302.65,316.354,,1170.208,309.912,318.454,,1170.208,97.6568,0.993408,99.3408,100.636
1172.42,290.031,306.956,,1172.42,302.319,311.822,,1172.42,95.9354,0.984396,98.4396,100.257
1174.633,283.502,296.128,,1174.633,293.452,303.95,,1174.633,96.6093,0.974267,97.4267,99.5193
1176.845,274.699,287.726,,1176.845,287.311,296.555,,1176.845,95.6103,0.970228,97.0228,98.7424
1179.057,264.987,279.116,,1179.057,269.168,287.512,,1179.057,98.4467,0.970797,97.0797,98.0848
1181.27,264.91,272.377,,1181.27,259.57,275.388,,1181.27,102.057,0.989065,98.9065,97.8376
1183.482,258.924,267.961,,1183.482,258.334,266.759,,1183.482,100.228,1.0045,100.45,98.05
1185.695,246.846,260.586,,1185.695,253.916,260.707,,1185.695,97.2156,0.999534,99.9534,98.4765
1187.907,242.495,252.138,,1187.907,251.678,256.108,,1187.907,96.3513,0.984497,98.4497,98.769
1190.12,241.689,246.455,,1190.12,240.621,251.416,,1190.12,100.444,0.980269,98.0269,98.9686
1192.332,234.155,241.684,,1192.332,233.382,244.964,,1192.332,100.331,0.986608,98.6608,99.1166
1194.545,228.167,235.963,,1194.545,223.506,236.57,,1194.545,102.085,0.997434,99.7434,99.0573
1196.757,227.541,231.634,,1196.757,220.356,227.657,,1196.757,103.261,1.01747,101.747,99.2134
1198.969,228.007,229.972,,1198.969,222.843,224.322,,1198.969,102.317,1.02519,102.519,99.8051
1201.182,226.654,229.004,,1201.182,222.693,224.009,,1201.182,101.779,1.0223,102.23,100.619
1203.394,222.574,226.611,,1203.394,227.543,224.733,,1203.394,97.8162,1.00836,100.836,101.203
1205.607,219.222,224.074,,1205.607,221.393,224.578,,1205.607,99.0194,0.997757,99.7757,101.352
1207.819,217.96,221.238,,1207.819,215.152,219.749,,1207.819,101.305,1.00678,100.678,101.304
1210.032,209.335,216.871,,1210.032,210.821,215.869,,1210.032,99.2951,1.00464,100.464,101
1212.244,200.892,209.86,,1212.244,206.855,212.013,,1212.244,97.1173,0.989844,98.9844,100.432
1214.456,198.359,204.512,,1214.456,197.525,207.03,,1214.456,100.422,0.987836,98.7836,99.8457
1216.669,184.281,197.763,,1216.669,185.106,198.968,,1216.669,99.5543,0.993946,99.3946,99.6925
1218.881,169.294,187.653,,1218.881,171.779,188.373,,1218.881,98.5534,0.996182,99.6182,99.5998
1221.094,151.672,174.623,,1221.094,151.726,174.676,,1221.094,99.9644,0.999699,99.9699,99.4438
1223.306,138.233,158.925,,1223.306,139.766,159.438,,1223.306,98.9032,0.996783,99.6783,99.4419
1225.519,136.158,147.796,,1225.519,124.081,145.808,,1225.519,109.733,1.01364,101.364,99.7764
1227.731,121.994,138.745,,1227.731,117.488,132.501,,1227.731,103.835,1.04713,104.713,100.683
1229.944,109.012,125.952,,1229.944,112.353,124.089,,1229.944,97.0263,1.01502,101.502,101.263
1232.156,105.76,115.935,,1232.156,97.22,114.347,,1232.156,108.784,1.01389,101.389,101.514
1234.368,97.418,109.087,,1234.368,97.727,105.743,,1234.368,99.6838,1.03163,103.163,102.109
1236.581,86.987,100.487,,1236.581,95.509,101.209,,1236.581,91.0773,0.992867,99.2867,102.221
1238.793,83.739,92.5235,,1238.793,88.568,95.5963,,1238.793,94.5477,0.967856,96.7856,101.086
1241.006,82.584,86.7593,,1241.006,82.539,89.3296,,1241.006,100.055,0.971226,97.1226,99.7771
1242.586,85.32,85.3696,,1242.586,79.058,86.0609,,1242.586,107.921,0.991968,99.1968,