File: public_html/data/backup/plexiglas_WN370.csv
wavelength_nm,intensity,intensity_smoothed,,wavelength_nm2,intensity_i0,intensity_i0_smoothed,,wavelength_nm3,,transmission,transmission_perc,transmission_perc_smoothed
173.232,8.9,#N/A,,173.232,26.786,#N/A,,173.232,33.2263,#N/A,#N/A,#N/A
175.084,12.446,10.4696,,175.084,38.604,29.6984,,175.084,32.2402,0.352533,35.2533,#N/A
176.935,13.809,12.4919,,176.935,36.058,34.7287,,176.935,38.2966,0.3597,35.97,#N/A
178.787,16.172,14.5888,,178.787,36.057,35.7311,,178.787,44.8512,0.408293,40.8293,#N/A
180.639,11.899,14.3992,,180.639,33.693,36.2498,,180.639,35.3159,0.397221,39.7221,#N/A
182.491,18.353,14.3459,,182.491,35.146,34.8517,,182.491,52.2193,0.411627,41.1627,#N/A
184.342,20.626,16.8684,,184.342,38.873,36.5629,,184.342,53.06,0.461353,46.1353,40.1994
186.194,14.807,16.8466,,186.194,37.236,37.7408,,186.194,39.7653,0.446377,44.6377,42.2954
188.046,15.807,15.2467,,188.046,41.599,37.9195,,188.046,37.9985,0.402081,40.2081,42.8648
189.897,21.352,17.785,,189.897,38.507,39.5136,,189.897,55.4497,0.450099,45.0099,43.1211
191.749,11.715,17.203,,191.749,31.688,37.3555,,191.749,36.9698,0.460522,46.0522,44.416
193.601,11.715,14.1121,,193.601,33.505,35.5764,,193.601,34.9649,0.396671,39.6671,43.9249
195.453,12.623,13.8427,,195.453,33.504,35.1224,,195.453,37.6761,0.394129,39.4129,42.4493
197.304,15.35,14.1324,,197.304,32.14,34.8236,,197.304,47.7598,0.405829,40.5829,41.8709
199.156,18.804,16.5658,,199.156,31.503,33.8949,,199.156,59.6896,0.488739,48.8739,42.7237
201.008,14.713,16.7404,,201.008,34.684,33.8897,,201.008,42.4201,0.493969,49.3969,43.367
202.86,15.258,15.5816,,202.86,34.683,34.1697,,202.86,43.9927,0.456006,45.6006,43.9273
204.711,14.258,15.7517,,204.711,35.227,35.1271,,204.711,40.4746,0.448419,44.8419,45.0495
206.563,13.894,14.4374,,206.563,32.136,34.3423,,206.563,43.235,0.420399,42.0399,45.699
208.415,20.075,16.0238,,208.415,36.68,34.8728,,208.415,54.7301,0.459493,45.9493,45.8513
210.267,10.893,15.8996,,210.267,34.316,35.8565,,210.267,31.7432,0.443424,44.3424,44.9737
212.118,15.438,13.3916,,212.118,32.679,35.2305,,212.118,47.2413,0.380115,38.0115,43.412
213.97,17.437,14.9314,,213.97,29.859,33.8215,,213.97,58.3978,0.441476,44.1476,42.844
215.822,15.346,15.3505,,215.822,29.859,31.0561,,215.822,51.3949,0.494284,49.4284,43.8077
217.673,11.164,14.0328,,217.673,35.858,33.0981,,217.673,31.1339,0.423977,42.3977,44.2138
219.525,16.618,14.5425,,219.525,29.402,33.5853,,219.525,56.52,0.433002,43.3002,43.3696
221.377,16.618,15.8777,,221.377,33.31,32.2544,,221.377,49.8889,0.492264,49.2264,44.7675
223.229,14.163,15.9953,,223.229,37.764,34.2879,,223.229,37.504,0.466501,46.6501,46.0971
225.08,14.98,14.4973,,225.08,38.763,35.4599,,225.08,38.6451,0.408836,40.8836,45.156
226.932,16.071,14.9067,,226.932,38.217,37.2011,,226.932,42.052,0.400707,40.0707,43.7175
228.784,13.343,14.2281,,228.784,32.761,36.0345,,228.784,40.7283,0.394847,39.4847,43.444
230.636,12.343,12.704,,230.636,29.397,34.1797,,230.636,41.9873,0.371682,37.1682,41.8653
232.487,16.251,13.4378,,232.487,33.214,33.1807,,232.487,48.9282,0.404988,40.4988,40.1616
234.339,15.069,14.0947,,234.339,34.304,34.4358,,234.339,43.9278,0.409305,40.9305,39.6974
236.191,11.887,13.9615,,236.191,27.485,31.4748,,236.191,43.249,0.443577,44.3577,40.2903
238.043,13.886,13.3354,,238.043,35.848,30.3274,,238.043,38.7358,0.439716,43.9716,41.029
239.894,17.795,16.1664,,239.894,44.574,35.5211,,239.894,39.9224,0.455121,45.5121,42.1662
241.746,14.795,16.3379,,241.746,53.482,42.8589,,241.746,27.6635,0.381203,38.1203,42.5619
243.598,14.249,15.378,,243.598,62.208,50.6793,,243.598,22.9054,0.303437,30.3437,40.917
245.449,14.339,14.6166,,245.449,62.662,56.7962,,245.449,22.8831,0.257351,25.7351,38.0378
247.301,15.793,14.3869,,247.301,66.025,60.0306,,247.301,23.9197,0.239658,23.9658,34.3314
249.153,17.066,15.6125,,249.153,75.569,66.0606,,249.153,22.5833,0.236336,23.6336,30.5008
251.005,13.429,15.5093,,251.005,79.023,71.749,,251.005,16.9938,0.21616,21.616,26.6677
252.856,9.792,13.5831,,252.856,77.567,74.9429,,252.856,12.6239,0.181245,18.1245,23.7579
254.681,12.337,10.9797,,254.681,79.021,76.3829,,254.681,15.6123,0.143746,14.3746,21.3086
256.513,18.427,12.754,,256.513,83.292,79.0528,,256.513,22.1234,0.161335,16.1335,19.5198
258.347,14.518,14.6939,,258.347,84.019,82.1099,,258.347,17.2794,0.178954,17.8954,18.3132
260.181,14.79,14.6509,,260.181,84.472,83.6374,,260.181,17.5088,0.175171,17.5171,17.2701
262.017,20.79,16.1626,,262.017,81.108,83.7727,,262.017,25.6325,0.192934,19.2934,16.9362
263.853,23.789,19.7183,,263.853,85.197,83.7059,,263.853,27.9223,0.235567,23.5567,18.0701
265.691,17.97,20.9178,,265.691,83.469,84.7439,,265.691,21.529,0.246836,24.6836,19.9166
267.53,17.334,18.5272,,267.53,78.923,83.0577,,267.53,21.9632,0.223064,22.3064,20.9696
269.369,16.242,17.1553,,269.369,82.013,82.1681,,269.369,19.8042,0.208783,20.8783,21.6997
271.21,18.06,16.7559,,271.21,81.648,82.5729,,271.21,22.1193,0.202922,20.2922,22.1764
273.052,24.968,19.3002,,273.052,78.374,81.0571,,273.052,31.8575,0.238106,23.8106,22.4816
274.895,23.059,21.6909,,274.895,79.009,79.5774,,274.895,29.1853,0.272576,27.2576,22.8584
276.739,21.786,21.4097,,276.739,83.554,81.013,,276.739,26.0742,0.264274,26.4274,23.4456
278.584,19.512,20.5323,,278.584,79.462,81.556,,278.584,24.5551,0.251757,25.1757,24.1264
280.431,22.694,21.1326,,280.431,84.461,81.9941,,280.431,26.8692,0.257734,25.7734,25.0368
282.278,21.693,22.5606,,282.278,87.55,84.3235,,282.278,24.7778,0.267548,26.7548,25.9411
284.126,18.693,21.0755,,284.126,87.549,85.4577,,284.126,21.3515,0.246619,24.6619,25.8931
285.976,19.601,20.0422,,285.976,89.821,87.2231,,285.976,21.8223,0.229781,22.9781,25.1988
287.826,17.055,19.6266,,287.826,86.82,87.5194,,287.826,19.6441,0.224255,22.4255,24.6317
289.678,12.964,16.8398,,289.678,88.001,87.5632,,289.678,14.7317,0.192317,19.2317,23.6872
291.531,18.054,16.2744,,291.531,82.999,86.9141,,291.531,21.7521,0.187247,18.7247,22.2578
293.385,19.417,17.1929,,293.385,86.544,86.0818,,293.385,22.436,0.199728,19.9728,21.0694
295.239,17.144,18.5038,,295.239,83.452,86.6223,,295.239,20.5435,0.213615,21.3615,20.5577
297.095,14.962,17.2862,,297.095,80.632,83.1922,,297.095,18.5559,0.207787,20.7787,20.1507
298.952,17.87,17.8557,,298.952,84.904,83.8708,,298.952,21.0473,0.212895,21.2895,20.0952
300.81,17.233,17.694,,300.81,81.721,82.882,,300.81,21.0876,0.213484,21.3484,20.6091
302.669,20.415,18.4105,,302.669,90.811,84.7768,,302.669,22.4808,0.217164,21.7164,21.0345
304.53,20.96,19.8975,,304.53,88.537,86.7993,,304.53,23.6737,0.229236,22.9236,21.392
306.391,17.777,19.4833,,306.391,85.536,86.9114,,306.391,20.7831,0.224175,22.4175,21.7186
308.253,16.686,18.0662,,308.253,82.171,84.5328,,308.253,20.3064,0.213719,21.3719,21.8847
310.117,17.14,17.4061,,310.117,84.624,82.3974,,310.117,20.2543,0.211246,21.1246,21.8917
311.981,16.503,17.0237,,311.981,90.623,85.0406,,311.981,18.2106,0.200183,20.0183,21.7322
313.847,17.411,17.1776,,313.847,85.258,86.5371,,313.847,20.4215,0.1985,19.85,21.2767
315.713,21.32,18.9789,,315.713,86.621,85.0832,,315.713,24.613,0.223063,22.3063,21.0059
317.581,17.319,19.8087,,317.581,89.074,85.5077,,317.581,19.4434,0.23166,23.166,21.2313
319.45,18.046,18.7642,,319.45,86.709,86.1281,,319.45,20.8121,0.217863,21.7863,21.3543
321.319,17.045,18.2634,,321.319,85.071,85.8514,,321.319,20.0362,0.212733,21.2733,21.4224
323.19,21.499,18.8637,,323.19,89.525,86.5611,,323.19,24.0145,0.217924,21.7924,21.752
325.062,18.681,19.86,,325.062,82.524,87.1706,,325.062,22.6371,0.22783,22.783,22.1007
326.935,19.68,18.8471,,326.935,88.25,86.2735,,326.935,22.3003,0.218458,21.8458,21.9759
328.809,19.225,19.2838,,328.809,91.521,87.842,,328.809,21.0061,0.219528,21.9528,21.9225
330.685,18.679,18.8817,,330.685,97.156,91.0015,,330.685,19.2258,0.207488,20.7488,21.9007
332.561,18.587,19.2433,,332.561,89.337,92.2346,,332.561,20.8055,0.208634,20.8634,21.8012
334.438,18.314,18.1527,,334.438,91.608,90.0201,,334.438,19.9917,0.201652,20.1652,21.4346
336.316,15.041,17.1977,,336.316,91.879,91.5528,,336.316,16.3704,0.187845,18.7845,20.8531
338.196,17.767,15.7888,,338.196,87.424,90.232,,338.196,20.3228,0.17498,17.498,20.0514
340.076,19.403,17.5738,,340.076,90.422,89.0709,,340.076,21.4583,0.197301,19.7301,19.5789
341.958,23.493,20.0696,,341.958,88.694,88.8436,,341.958,26.4877,0.225898,22.5898,19.7324
343.84,22.584,22.1418,,343.84,88.42,88.2726,,343.84,25.5417,0.250835,25.0835,20.4479
345.724,27.129,23.3238,,345.724,94.418,90.3649,,345.724,28.7329,0.258106,25.8106,21.5261
347.609,24.584,25.6895,,347.609,94.789,93.2687,,347.609,25.9355,0.275436,27.5436,23.2499
349.495,17.85,23.1082,,349.495,91.155,93.6846,,349.495,19.582,0.24666,24.666,24.6169
351.382,20.857,21.4778,,351.382,90.863,92.7503,,351.382,22.9543,0.231566,23.1566,25.0974
353.269,17.902,20.8433,,353.269,93.89,92.5566,,353.269,19.067,0.225195,22.5195,24.9056
355.158,15.197,18.9743,,355.158,91.527,92.7964,,355.158,16.6038,0.204472,20.4472,24.054
357.048,21.358,18.855,,357.048,92.684,93.1377,,357.048,23.0439,0.202443,20.2443,22.7381
358.94,23.28,20.703,,358.94,95.218,94.2336,,358.94,24.4492,0.219699,21.9699,21.7443
360.832,16.881,20.0175,,360.832,96.431,95.4034,,360.832,17.5058,0.209819,20.9819,21.3316
362.725,17.197,17.4798,,362.725,93.62,95.0673,,362.725,18.3689,0.183868,18.3868,20.601
364.619,20.551,18.5314,,364.619,105.359,96.5883,,364.619,19.5057,0.191859,19.1859,20.1471
366.515,18.996,18.7455,,366.515,104.282,101.133,,366.515,18.216,0.185355,18.5355,19.9664
368.411,22.965,20.3153,,368.411,101.47,101.551,,368.411,22.6323,0.20005,20.005,19.6737
370.308,22.551,21.754,,370.308,97.975,100.897,,370.308,23.0171,0.215606,21.5606,19.5753
372.207,21.041,21.6576,,372.207,105.848,101.347,,372.207,19.8785,0.213698,21.3698,19.9036
374.107,17.906,21.5113,,374.107,105.608,103.386,,374.107,16.9552,0.208069,20.8069,20.331
376.007,14.791,19.7816,,376.007,106.189,104.33,,376.007,13.9289,0.189605,18.9605,20.3897
377.909,14.72,17.1813,,377.909,105.226,104.795,,377.909,13.9889,0.163951,16.3951,20.038
379.812,19.956,17.2801,,379.812,111.582,106.882,,379.812,17.8846,0.161674,16.1674,19.1307
381.716,20.265,19.0783,,381.716,114.291,109.895,,381.716,17.7311,0.173605,17.3605,18.2587
383.62,21.891,20.7723,,383.62,112.097,112.163,,383.62,19.5286,0.185198,18.5198,17.6826
385.526,26.697,22.2171,,385.526,116.28,112.79,,385.526,22.9592,0.196978,19.6978,17.5552
387.433,21.786,23.8726,,387.433,115.424,114.342,,387.433,18.8748,0.208783,20.8783,18.1318
389.341,20.539,21.9057,,389.341,119.767,115.64,,389.341,17.1491,0.18943,18.943,18.7913
391.25,20.929,21.7065,,391.25,130.241,120.838,,391.25,16.0694,0.179633,17.9633,19.0675
393.161,28.708,22.8745,,393.161,141.583,128.167,,393.161,20.2764,0.178474,17.8474,19.0353
395.072,30.06,26.6339,,395.072,162.278,140.311,,395.072,18.5238,0.18982,18.982,19.0157
396.984,41.45,30.7351,,396.984,184.699,157.71,,396.984,22.4419,0.194884,19.4884,18.7719
398.897,55.478,40.8552,,398.897,227.497,182.636,,398.897,24.3863,0.223697,22.3697,19.0654
400.812,62.213,49.8182,,400.812,289.932,221.57,,400.812,21.4578,0.224842,22.4842,19.8549
402.727,89.596,62.6483,,402.727,375.612,277.644,,402.727,23.8533,0.225643,22.5643,20.7693
404.644,133.329,87.2971,,404.644,524.35,364.121,,404.644,25.4275,0.239747,23.9747,21.7297
406.561,195.438,125.985,,406.561,752.631,501.419,,406.561,25.9673,0.251257,25.1257,22.8397
408.48,286.914,183.666,,408.48,1090.276,712.968,,408.48,26.3157,0.257608,25.7608,23.7418
410.4,425.439,271.048,,410.4,1576.714,1024.69,,410.4,26.9826,0.264518,26.4518,24.4202
412.32,629.995,400.59,,412.32,2292.428,1484.04,,412.32,27.4816,0.269932,26.9932,25.2674
414.242,922.429,591.336,,414.242,3303.056,2146.55,,414.242,27.9265,0.275482,27.5482,26.0643
416.165,1313.788,858.389,,416.165,4719.128,3089.8,,416.165,27.8396,0.277813,27.7813,26.6734
418.089,1855.398,1228.2,,418.089,6623.23,4399.73,,418.089,28.0135,0.279153,27.9153,27.1352
420.014,2570.156,1730.09,,420.014,9137.17,6168.31,,420.014,28.1286,0.280481,28.0481,27.505
421.939,3450.493,2384.13,,421.939,12355.714,8501.15,,421.939,27.9263,0.280448,28.0448,27.7648
423.866,4532.383,3204.93,,423.866,16253.351,11472.2,,423.866,27.8858,0.279365,27.9365,27.9046
425.795,5828.948,4220.06,,425.795,20920.267,15116.3,,425.795,27.8627,0.279174,27.9174,27.9529
427.724,7304.938,5427.67,,427.724,26342.847,19491.6,,427.724,27.7303,0.278462,27.8462,27.9606
429.654,9007.034,6831.01,,429.654,32472.644,24593,,429.654,27.7373,0.277763,27.7763,27.9267
431.585,10964.807,8454.58,,431.585,39466.603,30450.9,,431.585,27.7825,0.277646,27.7646,27.8703
433.517,13210.375,10323.4,,433.517,47212.176,37095.6,,433.517,27.9809,0.278291,27.8291,27.8344
435.451,15745.607,12460.7,,435.451,57567.013,44916.7,,435.451,27.3518,0.277418,27.7418,27.8135
437.385,18467.974,14864.3,,437.385,64000,53518.3,,437.385,28.8562,0.277742,27.7742,27.7792
439.32,21012.262,17405.5,,439.32,64000,58986.7,,439.32,32.8317,0.295075,29.5075,27.9873
441.257,22865.159,19805.3,,441.257,64000,61602.1,,441.257,35.7268,0.321503,32.1503,28.6718
443.194,23430.11,21613.6,,443.194,63787.125,62827.3,,443.194,36.7317,0.344015,34.4015,29.8126
445.133,22460.59,22382.7,,445.133,62883.234,63135.6,,445.133,35.7179,0.354518,35.4518,31.2106
447.072,20157.055,21886.2,,447.072,61142.14,62615.5,,447.072,32.9675,0.349533,34.9533,32.6333
449.013,17067.914,20217.1,,449.013,56984.331,60958,,449.013,29.9519,0.331656,33.1656,33.646
450.955,13899.899,17755.9,,450.955,48943.691,56974.3,,450.955,28.3998,0.311647,31.1647,33.8516
452.897,11171.929,15024.4,,452.897,40056.044,50478,,452.897,27.8907,0.297643,29.7643,33.2718
454.841,9051.4,12448.1,,454.841,32726.301,43097.4,,454.841,27.6579,0.288836,28.8836,32.1633
456.786,7475.397,10254,,456.786,27131.96,36193.8,,456.786,27.552,0.28331,28.331,30.8592
458.732,6296.144,8491.87,,458.732,22827.2,30323.6,,458.732,27.5818,0.280041,28.0041,29.6915
460.679,5349.028,7097.76,,460.679,19324.818,25488.8,,460.679,27.6796,0.278465,27.8465,28.8601
462.627,4530.688,5972.09,,462.627,16380.89,21505.9,,462.627,27.6584,0.277696,27.7696,28.3451
464.576,3837.599,5038.15,,464.576,13857.231,18175.3,,464.576,27.6938,0.277198,27.7198,28.0381
466.526,3258.128,4259.62,,466.526,11729.578,15364,,466.526,27.777,0.277247,27.7247,27.8669
468.477,2767.886,3607.89,,468.477,9995.534,13006.5,,468.477,27.6912,0.277392,27.7392,27.7845
470.429,2389.443,3067.31,,470.429,8656.172,11077,,470.429,27.6039,0.276907,27.6907,27.7435
472.382,2112.426,2640.59,,472.382,7635.598,9541.11,,472.382,27.6655,0.276759,27.6759,27.7181
474.336,1902.116,2310.1,,474.336,6854.628,8338.67,,474.336,27.7494,0.277035,27.7035,27.7081
476.292,1743.248,2056.62,,476.292,6260.377,7405.36,,476.292,27.8457,0.27772,27.772,27.7133
478.248,1623.473,1862.66,,478.248,5803.889,6686.65,,478.248,27.9722,0.278564,27.8564,27.7311
480.205,1524.253,1711.14,,480.205,5461.718,6135.55,,480.205,27.9079,0.278889,27.8889,27.7629
482.164,1468.163,1597.85,,482.164,5237.861,5720.76,,482.164,28.0298,0.279307,27.9307,27.8073
484.123,1452.87,1525.24,,484.123,5160.507,5444.05,,484.123,28.1536,0.280167,28.0167,27.8658
486.083,1476.358,1491.69,,486.083,5228.466,5308.26,,486.083,28.2369,0.281013,28.1013,27.9322
488.045,1549.219,1500.68,,488.045,5480.019,5324.94,,488.045,28.2703,0.281822,28.1822,27.9996
490.007,1663.57,1553.19,,490.007,5891.004,5504.92,,490.007,28.2392,0.282145,28.2145,28.0614
491.971,1822.743,1647.42,,491.971,6468.471,5846.97,,491.971,28.1789,0.281756,28.1756,28.1163
493.936,2025.942,1787.29,,493.936,7190.779,6348.99,,493.936,28.1742,0.281508,28.1508,28.1528
495.901,2263.462,1972.26,,495.901,8029.417,6994.04,,495.901,28.1896,0.281992,28.1992,28.1781
497.868,2531.763,2192.43,,497.868,9011.373,7778.88,,497.868,28.0952,0.281844,28.1844,28.1884
499.836,2831.719,2445.29,,499.836,10104.749,8696.37,,499.836,28.0236,0.281185,28.1185,28.1759
501.804,3159.981,2728.61,,501.804,11270.159,9726.87,,501.804,28.0385,0.280523,28.0523,28.15
503.774,3507.012,3042.44,,503.774,12464.423,10834.2,,503.774,28.1362,0.280818,28.0818,28.1309
505.745,3834.478,3368.98,,505.745,13673.219,11989.4,,505.745,28.0437,0.280998,28.0998,28.1164
507.717,4167.033,3695.3,,507.717,14872.93,13172.9,,507.717,28.0176,0.280522,28.0522,28.0907
509.69,4501.62,4027.83,,509.69,16056.998,14363.8,,509.69,28.0353,0.280416,28.0416,28.0697
511.664,4824.59,4357.41,,511.664,17217.394,15546.2,,511.664,28.0216,0.280289,28.0289,28.0603
513.639,5118.397,4678.23,,513.639,18283.309,16693.9,,513.639,27.9949,0.280237,28.0237,28.0543
515.615,5390.222,4978.61,,515.615,19258.438,17775.9,,515.615,27.9889,0.280077,28.0077,28.0386
517.592,5629.326,5255.15,,517.592,20128.144,18776.6,,517.592,27.9674,0.279878,27.9878,28.0231
519.57,5849.136,5506.82,,519.57,20880.749,19677.7,,519.57,28.0121,0.279851,27.9851,28.0117
521.549,6041.747,5736.05,,521.549,21567.103,20481.6,,521.549,28.0137,0.28006,28.006,28.0047
523.529,6217.833,5942.92,,523.529,22195.328,21213.8,,523.529,28.0142,0.280144,28.0144,28.002
525.51,6364.364,6127.26,,525.51,22691.129,21857.8,,525.51,28.0478,0.280323,28.0323,28.0039
527.493,6465.7,6278.18,,527.493,23058.875,22393.1,,527.493,28.04,0.280362,28.0362,28.011
529.476,6558.656,6400.6,,529.476,23304.066,22803.7,,529.476,28.1438,0.280682,28.0682,28.0245
531.46,6615.148,6500.31,,531.46,23470.938,23114.7,,531.46,28.1844,0.28122,28.122,28.046
533.446,6645.51,6566.84,,533.446,23511.018,23315.5,,533.446,28.2655,0.281651,28.1651,28.0726
535.432,6667.265,6616.22,,535.432,23522.14,23420.3,,535.432,28.3446,0.282499,28.2499,28.1108
537.419,6645.918,6637.46,,537.419,23550.666,23479.6,,537.419,28.2197,0.282691,28.2691,28.1552
539.408,6628.738,6637.08,,539.408,23514.322,23508.5,,539.408,28.1902,0.282326,28.2326,28.1921
541.397,6617.601,6629.93,,541.397,23421.676,23487.5,,541.397,28.2542,0.282275,28.2275,28.217
543.388,6608.962,6622.62,,543.388,23308.611,23427,,543.388,28.3542,0.282691,28.2691,28.2387
545.379,6562.072,6606.06,,545.379,23191.606,23337.7,,545.379,28.295,0.283064,28.3064,28.2578
547.372,6520.54,6574.15,,547.372,23067.082,23233,,547.372,28.2677,0.282966,28.2966,28.2639
549.365,6485.06,6538.87,,549.365,22873.453,23102.2,,549.365,28.3519,0.283041,28.3041,28.2728
551.36,6447.358,6500.6,,551.36,22657.524,22929.7,,551.36,28.4557,0.283502,28.3502,28.2935
553.356,6393.805,6459.08,,553.356,22458.012,22738.3,,553.356,28.47,0.284062,28.4062,28.3224
555.352,6330.272,6409.48,,555.352,22260.207,22544.8,,555.352,28.4376,0.284299,28.4299,28.3482
557.35,6258.835,6349.79,,557.35,21989.908,22330.1,,557.35,28.4623,0.284361,28.4361,28.3731
559.349,6197.56,6285.66,,559.349,21709.137,22080.9,,559.349,28.5482,0.284665,28.4665,28.4036
561.348,6133.786,6223.98,,561.348,21446.354,21819.4,,561.348,28.6006,0.28525,28.525,28.4388
563.349,6052.141,6155.48,,563.349,21149.204,21549.7,,563.349,28.6164,0.285641,28.5641,28.4721
565.351,5973.307,6080.13,,565.351,20809.542,21256.4,,565.351,28.7047,0.286037,28.6037,28.5044
567.354,5900.018,6005,,567.354,20445.19,20936.2,,567.354,28.8577,0.286824,28.6824,28.5468
569.358,5810.204,5929.63,,569.358,20090.264,20589.1,,569.358,28.9205,0.287998,28.7998,28.6077
571.363,5694.357,5835.54,,571.363,19686.427,20228.3,,571.363,28.9253,0.288484,28.8484,28.6734
573.368,5597.67,5737.27,,573.368,19315.428,19846,,573.368,28.9803,0.28909,28.909,28.7393
575.375,5492.142,5638.56,,575.375,18986.807,19488.9,,575.375,28.9261,0.289321,28.9321,28.8056
577.383,5382.297,5535.1,,577.383,18574.161,19122.9,,577.383,28.9773,0.289449,28.9449,28.8637
579.392,5281.582,5428.55,,579.392,18171.353,18727.8,,579.392,29.0654,0.289866,28.9866,28.9086
581.402,5168.616,5323.04,,581.402,17776.569,18343.2,,581.402,29.0754,0.290191,29.0191,28.9442
583.413,5051.055,5212.34,,583.413,17345.495,17939.5,,583.413,29.1203,0.29055,29.055,28.9767
585.425,4929.822,5096.26,,585.425,16927.19,17522,,585.425,29.1237,0.29085,29.085,29.006
587.439,4815.299,4978.52,,587.439,16478.458,17098.9,,587.439,29.2218,0.291161,29.1161,29.0378
589.453,4687.318,4861.26,,589.453,16021.565,16657.7,,589.453,29.2563,0.291832,29.1832,29.0763
591.468,4564.041,4740,,591.468,15595.936,16217,,591.468,29.2643,0.292286,29.2286,29.1164
593.484,4443.644,4618.41,,593.484,15135.761,15776.2,,593.484,29.3586,0.292746,29.2746,29.1585
595.501,4311.033,4493.87,,595.501,14661.348,15320.5,,595.501,29.4041,0.293325,29.3325,29.2041
597.519,4177.616,4365,,597.519,14208.392,14858.6,,597.519,29.4025,0.293769,29.3769,29.2546
599.539,4047.616,4235.83,,599.539,13742.769,14406.5,,599.539,29.4527,0.294022,29.4022,29.3012
601.559,3920.288,4106.05,,601.559,13250.632,13937.9,,601.559,29.5857,0.294595,29.4595,29.3455
603.58,3793.007,3975.74,,603.58,12766.031,13456.8,,603.58,29.7117,0.295445,29.5445,29.3977
605.602,3674.302,3849.93,,605.602,12339.477,12986.6,,605.602,29.7768,0.296455,29.6455,29.4589
607.626,3532.361,3722.63,,607.626,11850.801,12526.1,,607.626,29.8069,0.297191,29.7191,29.5252
609.65,3399.887,3589.41,,609.65,11365.108,12046.9,,609.65,29.9151,0.297953,29.7953,29.5985
611.675,3275.505,3458.31,,611.675,10930.839,11580.6,,611.675,29.9657,0.298629,29.8629,29.6793
613.702,3142.76,3328.31,,613.702,10480.543,11125.3,,613.702,29.9866,0.299166,29.9166,29.7566
615.729,3030.274,3203.48,,615.729,10058.86,10678.5,,615.729,30.1254,0.299995,29.9995,29.8287
617.757,2902.886,3081.67,,617.757,9626.625,10242.3,,617.757,30.1548,0.300878,30.0878,29.9007
619.787,2778.68,2956.03,,619.787,9178.597,9804.92,,619.787,30.2735,0.301484,30.1484,29.9724
621.817,2659.089,2830.6,,621.817,8739.57,9363.02,,621.817,30.4259,0.302317,30.2317,30.0446
623.849,2557.977,2714.3,,623.849,8378.301,8944.18,,623.849,30.531,0.303471,30.3471,30.1252
625.881,2454.45,2605.51,,625.881,8018.036,8559.97,,625.881,30.6116,0.304384,30.4384,30.214
627.915,2350.306,2498.99,,627.915,7612.591,8173.49,,627.915,30.8739,0.305744,30.5744,30.3075
629.949,2253.776,2395.8,,629.949,7253.439,7787.88,,629.949,31.0718,0.307632,30.7632,30.4216
631.985,2152.108,2295.8,,631.985,6920.723,7425.09,,631.985,31.0966,0.309196,30.9196,30.5539
634.021,2036.407,2191.57,,634.021,6588.839,7077.77,,634.021,30.9069,0.309641,30.9641,30.6828
636.059,1943.384,2086.72,,636.059,6255.693,6735.87,,636.059,31.0658,0.309792,30.9792,30.7931
638.098,1846.005,1986.98,,638.098,5940.561,6402.08,,638.098,31.0746,0.310364,31.0364,30.8929
640.137,1765.39,1891.59,,640.137,5647.062,6082.74,,640.137,31.2621,0.310977,31.0977,30.972
642.178,1681.829,1804.03,,642.178,5351.739,5777.91,,642.178,31.4258,0.312229,31.2229,31.0363
644.219,1588.519,1716.58,,644.219,5077.458,5483.36,,644.219,31.2857,0.313053,31.3053,31.1002
646.262,1504.803,1627.38,,646.262,4811.13,5203.37,,646.262,31.2775,0.312754,31.2754,31.1595
648.306,1422.155,1542.6,,648.306,4540.322,4928.5,,648.306,31.3228,0.312997,31.2997,31.2143
650.35,1349.572,1460.77,,650.35,4299.885,4664.42,,650.35,31.3862,0.313174,31.3174,31.2622
652.396,1282.03,1387.11,,652.396,4069.196,4416.55,,652.396,31.5057,0.314072,31.4072,31.305
654.443,1212.355,1314.6,,654.443,3845.692,4178.94,,654.443,31.525,0.314577,31.4577,31.3379
656.49,1146.07,1243.85,,656.49,3614.831,3945.61,,656.49,31.7047,0.315249,31.5249,31.3776
658.539,1082.126,1176.68,,658.539,3395.884,3715.16,,658.539,31.8658,0.316723,31.6723,31.4427
660.589,1018.226,1111.46,,660.589,3212.113,3501.78,,660.589,31.6996,0.317398,31.7398,31.5227
662.64,962.647,1048.39,,662.64,3008.504,3299.99,,662.64,31.9975,0.317695,31.7695,31.5993
664.691,909.111,989.969,,664.691,2825.846,3101.62,,664.691,32.1713,0.319178,31.9178,31.6833
666.744,867.396,936.438,,666.744,2665.607,2917.05,,666.744,32.5403,0.321022,32.1022,31.7913
668.798,817.416,888.361,,668.798,2508.898,2745.46,,668.798,32.5807,0.323575,32.3575,31.9248
670.853,762.409,836.935,,670.853,2354.692,2582.3,,670.853,32.3783,0.324105,32.4105,32.0561
672.909,711.944,785.706,,672.909,2213.672,2427.68,,672.909,32.1612,0.323645,32.3645,32.179
674.965,667.498,735.392,,674.965,2086.494,2283.43,,674.965,31.9914,0.322056,32.2056,32.2577
677.023,628.879,690.511,,677.023,1964.424,2148.24,,677.023,32.0134,0.32143,32.143,32.2878
679.082,593.63,648.835,,679.082,1847.565,2022.54,,679.082,32.1304,0.320802,32.0802,32.2626
681.142,564.82,612.946,,681.142,1737.729,1903.79,,681.142,32.5033,0.321961,32.1961,32.2179
683.203,534.331,580.561,,683.203,1629.665,1789.43,,683.203,32.7878,0.324439,32.4439,32.2117
685.265,496.872,547.492,,685.265,1520.884,1678.67,,685.265,32.6699,0.326147,32.6147,32.2675
687.327,463.82,511.756,,687.327,1427.089,1572.32,,687.327,32.5011,0.325478,32.5478,32.343
689.391,444.992,481.849,,689.391,1342.555,1474.85,,689.391,33.1452,0.326711,32.6711,32.4393
691.456,419.895,456.143,,691.456,1266.909,1386.44,,691.456,33.1433,0.329003,32.9003,32.5757
693.522,391.54,429.486,,693.522,1181.382,1302.62,,693.522,33.1425,0.329709,32.9709,32.7021
695.589,366.223,402.783,,695.589,1099.399,1217.94,,695.589,33.3112,0.330708,33.0708,32.7975
697.657,346.486,378.596,,697.657,1034.453,1139.18,,697.657,33.4946,0.332342,33.2342,32.9102
699.726,317.343,354.93,,699.726,971.408,1066.88,,699.726,32.6684,0.332679,33.2679,33.0477
701.796,297.059,328.802,,701.796,917.503,1001.66,,701.796,32.3769,0.328257,32.8257,33.0819
703.867,281.442,307.762,,703.867,861.064,943.417,,703.867,32.6854,0.326221,32.6221,33.0278
705.939,265.126,288.479,,705.939,804.537,885.41,,705.939,32.9539,0.325814,32.5814,32.9459
708.012,250.627,272.704,,708.012,759.323,831.585,,708.012,33.0066,0.327933,32.7933,32.8706
710.085,233.173,257.028,,710.085,719.139,783.449,,710.085,32.4239,0.328072,32.8072,32.7808
712.16,217.983,240.321,,712.16,670.14,738.668,,712.16,32.528,0.325343,32.5343,32.6909
714.236,207.247,225.232,,714.236,626.682,690.974,,714.236,33.0705,0.325963,32.5963,32.6611
716.313,193.559,211.963,,716.313,586.621,647.561,,716.313,32.9956,0.327326,32.7326,32.6846
718.391,183.917,199.149,,718.391,553.42,606.872,,718.391,33.2328,0.328156,32.8156,32.707
720.47,169.347,187.708,,720.47,515.553,569.744,,720.47,32.8476,0.32946,32.946,32.7232
722.55,163.042,176.17,,722.55,489.289,534.375,,722.55,33.3222,0.329675,32.9675,32.7711
724.631,153.783,168.174,,724.631,456.046,503.092,,724.631,33.7209,0.33428,33.428,32.9117
726.713,137.658,156.692,,726.713,427.384,471.345,,726.713,32.2094,0.332436,33.2436,33.0394
728.796,133.332,145.848,,728.796,406.484,444.036,,728.796,32.8013,0.328459,32.8459,33.0663
730.88,121.758,136.691,,730.88,378.822,417.772,,730.88,32.1412,0.327191,32.7191,33.0437
732.965,120.754,128.42,,732.965,361.79,392.676,,732.965,33.3768,0.327038,32.7038,32.9908
735.051,116.543,123.531,,735.051,344.187,371.911,,735.051,33.8604,0.332152,33.2152,32.9703
737.138,109.009,118.152,,737.138,327.822,352.608,,737.138,33.2525,0.335082,33.5082,32.9692
739.226,102.486,111.368,,739.226,309.223,335.6,,739.226,33.1431,0.331847,33.1847,33.0157
741.315,99.214,105.792,,741.315,291.064,317.051,,741.315,34.0867,0.333675,33.3675,33.098
743.405,88.19,99.0984,,743.405,276.402,299.691,,743.405,31.9064,0.330668,33.0668,33.2151
745.496,79.495,90.4732,,745.496,267.689,285.57,,745.496,29.6968,0.316816,31.6816,33.0714
747.588,79.828,84.7742,,747.588,249.668,272.766,,747.588,31.9737,0.310795,31.0795,32.6577
749.681,79.049,81.6816,,749.681,240.994,258.037,,749.681,32.8012,0.31655,31.655,32.3103
751.775,72.379,79.3954,,751.775,237.1,248.653,,751.775,30.5268,0.319302,31.9302,32.0769
753.87,68.615,74.493,,753.87,228.541,240.406,,753.87,30.0231,0.309864,30.9864,31.6713
755.966,72.878,72.5873,,755.966,222.743,232.847,,755.966,32.7184,0.311738,31.1738,31.3671
758.063,73.25,71.2887,,758.063,209.387,224.581,,758.063,34.9831,0.31743,31.743,31.411
760.161,69.987,70.1769,,760.161,198.162,212.747,,760.161,35.3181,0.32986,32.986,31.6626
762.26,61.009,66.9494,,762.26,193.657,204.219,,762.26,31.5036,0.327832,32.7832,31.8677
764.36,56.901,62.6228,,764.36,185.172,196.9,,764.36,30.7287,0.318043,31.8043,31.9721
766.461,54.028,58.8718,,766.461,185.015,190.823,,766.461,29.202,0.308515,30.8515,32.0238
768.562,49.281,55.379,,768.562,177.598,186.254,,768.562,27.7486,0.29733,29.733,31.7759
770.665,46.769,52.708,,770.665,168.205,179.624,,770.665,27.8048,0.293435,29.3435,31.2145
772.769,47.781,50.1666,,772.769,160.362,171.275,,772.769,29.7957,0.292902,29.2902,30.4633
774.874,52.687,50.1725,,774.874,156.442,163.531,,774.874,33.6783,0.306808,30.6808,30.0406
776.98,51.008,51.1064,,776.98,157.256,159.793,,776.98,32.4363,0.319829,31.9829,30.1004
779.087,43.383,48.7696,,779.087,150.343,156.351,,779.087,28.856,0.311925,31.1925,30.3222
781.195,46.602,46.1947,,781.195,140.336,150.312,,781.195,33.2074,0.307327,30.7327,30.5508
783.304,51.161,47.2483,,783.304,142.542,145.898,,783.304,35.8919,0.323845,32.3845,31.0683
785.414,44.606,46.6323,,785.414,141.88,144.517,,785.414,31.4392,0.322676,32.2676,31.6003
787.525,41.18,44.4007,,787.525,138.395,142.375,,787.525,29.7554,0.311857,31.1857,31.5922
789.637,37.049,42.4087,,789.637,135.958,140.064,,789.637,27.2503,0.302781,30.2781,31.356
791.749,35.875,39.5206,,791.749,131.269,136.744,,791.749,27.3294,0.289012,28.9012,31.0694
793.863,36.058,37.6983,,793.863,129.371,132.71,,793.863,27.8718,0.284066,28.4066,30.522
795.978,39.825,37.3419,,795.978,126.025,130.387,,795.978,31.6009,0.286393,28.6393,29.7487
798.094,37.415,37.3883,,798.094,126.645,128.492,,798.094,29.5432,0.290977,29.0977,29.254
800.211,33.542,36.6461,,800.211,120.724,126.79,,800.211,27.784,0.289029,28.9029,28.9051
802.329,33.445,34.9972,,802.329,125.017,126.006,,802.329,26.7524,0.277741,27.7741,28.6266
804.448,36.138,35.1695,,804.448,123.93,125.476,,804.448,29.16,0.280288,28.0288,28.4793
806.567,33.946,36.3103,,806.567,122.311,123.382,,806.567,27.7538,0.294291,29.4291,28.6133
808.688,23.338,32.6045,,808.688,118.367,122.129,,808.688,19.7166,0.266969,26.6969,28.3948
810.81,29.067,28.9474,,810.81,125.329,121.378,,810.81,23.1926,0.238489,23.8489,27.5098
812.933,28.273,29.5984,,812.933,123.13,122.682,,812.933,22.9619,0.241262,24.1262,26.6495
815.057,30.9,29.2401,,815.057,120.642,120.862,,815.057,25.613,0.24193,24.193,25.9508
817.181,35.956,31.7332,,817.181,129.685,123.09,,817.181,27.7256,0.257805,25.7805,25.283
819.307,34.103,33.608,,819.307,137.701,129.382,,819.307,24.766,0.259759,25.9759,24.8121
821.434,40.555,35.8009,,821.434,141.814,134.579,,821.434,28.5973,0.26602,26.602,25.0301
823.562,42.114,39.3777,,823.562,150.847,140.696,,823.562,27.9184,0.279877,27.9877,25.7585
825.69,44.407,41.3031,,825.69,162.962,148.914,,825.69,27.2499,0.277363,27.7363,26.4898
827.82,42.233,41.8086,,827.82,184.395,161.474,,827.82,22.9035,0.258918,25.8918,26.8529
829.951,50.707,43.8245,,829.951,200.202,177.52,,829.951,25.3279,0.24687,24.687,26.6263
832.082,55.647,49.79,,832.082,211.484,192.708,,832.082,26.3126,0.25837,25.837,26.5202
834.215,53.266,53.3522,,834.215,217.983,204.276,,834.215,24.4359,0.261177,26.1177,26.2906
836.349,52.366,53.2198,,836.349,222.188,211.359,,836.349,23.5683,0.251799,25.1799,25.8263
838.483,63.001,55.3695,,838.483,255.234,223.382,,838.483,24.6836,0.247869,24.7869,25.386
840.619,76.711,63.0469,,840.619,308.756,252.75,,840.619,24.8452,0.249444,24.9444,25.336
842.755,93.385,74.1194,,842.755,374.652,296.792,,842.755,24.9258,0.249735,24.9735,25.3069
844.893,116.853,90.2664,,844.893,464.696,359.307,,844.893,25.1461,0.251224,25.1224,25.1228
847.032,136.609,108.915,,847.032,557.035,437.958,,847.032,24.5243,0.248687,24.8687,24.9839
849.171,156.207,126.668,,849.171,661.057,525.484,,849.171,23.6299,0.241051,24.1051,24.8684
851.312,178.591,148.171,,851.312,756.098,619.683,,851.312,23.6201,0.239108,23.9108,24.6847
853.453,198.217,169.37,,853.453,857.691,715.358,,853.453,23.1105,0.236763,23.6763,24.4541
855.596,221.874,190.164,,855.596,945.06,813.531,,855.596,23.4772,0.233751,23.3751,24.1491
857.739,239.256,211.49,,857.739,1009.281,898.409,,857.739,23.7056,0.235405,23.5405,23.8488
859.884,252.539,229.259,,859.884,1085.862,977.02,,859.884,23.257,0.234651,23.4651,23.6516
862.029,261.548,243.728,,862.029,1134.54,1048.31,,862.029,23.0532,0.232495,23.2495,23.5216
864.175,269.654,254.646,,864.175,1180.224,1104.7,,864.175,22.8477,0.230511,23.0511,23.3855
866.323,281.793,265.64,,866.323,1219.693,1154.71,,866.323,23.1036,0.230049,23.0049,23.291
868.471,293.001,277.007,,868.471,1270.779,1200.42,,868.471,23.0568,0.230759,23.0759,23.2199
870.621,306.134,288.928,,870.621,1328.341,1250.62,,870.621,23.0463,0.231029,23.1029,23.1332
872.771,320.361,301.01,,872.771,1407.639,1310.18,,872.771,22.7587,0.229747,22.9747,23.0652
874.922,347.947,317.959,,874.922,1501.233,1383.95,,874.922,23.1774,0.229747,22.9747,23.0245
877.075,370.243,338.895,,877.075,1615.768,1472.94,,877.075,22.9144,0.230081,23.0081,23.0259
879.228,400.687,363.644,,879.228,1742.694,1578.64,,879.228,22.9924,0.230352,23.0352,23.0226
881.382,427.344,390.471,,881.382,1861.847,1694.73,,881.382,22.9527,0.230403,23.0403,23.0137
883.537,455.037,416.669,,883.537,1967.351,1809.46,,883.537,23.1294,0.230273,23.0273,23.0055
885.694,472.955,441.872,,885.694,2063.009,1916.59,,885.694,22.9255,0.230551,23.0551,23.026
887.851,488.944,462.222,,887.851,2128.935,2010.83,,887.851,22.9666,0.229866,22.9866,23.023
890.009,497.697,479.621,,890.009,2174.289,2085.22,,890.009,22.8901,0.23001,23.001,23.0208
892.168,498.589,489.316,,892.168,2167.414,2133.41,,892.168,23.0039,0.229358,22.9358,23.0038
894.328,487.272,491.786,,894.328,2119.476,2141.3,,894.328,22.9902,0.229667,22.9667,22.9941
896.489,470.213,484.478,,896.489,2026.271,2108.09,,896.489,23.2058,0.229819,22.9819,22.9799
898.651,442.359,469.77,,898.651,1918.326,2037.89,,898.651,23.0596,0.230517,23.0517,22.9842
900.815,414.984,448.495,,900.815,1785.282,1942.55,,900.815,23.2447,0.230879,23.0879,23.0005
902.979,385.52,423.833,,902.979,1649.08,1825.48,,902.979,23.3779,0.232176,23.2176,23.0433
905.144,360.603,397.576,,905.144,1520.884,1700.28,,905.144,23.7101,0.23383,23.383,23.1158
907.31,333.451,370.618,,907.31,1390.411,1573.02,,907.31,23.9822,0.235608,23.5608,23.2169
909.477,305.673,343.403,,909.477,1272.518,1446.96,,909.477,24.0211,0.237326,23.7326,23.3421
911.644,272.962,314.65,,911.644,1161.269,1326.88,,911.644,23.5055,0.237135,23.7135,23.4696
913.813,250.005,286.261,,913.813,1069.772,1215.71,,913.813,23.3699,0.235468,23.5468,23.5535
915.983,234.165,263.334,,915.983,988.66,1118.11,,915.983,23.6851,0.235516,23.5516,23.601
918.154,212.598,243.337,,918.154,909.367,1029.4,,918.154,23.3787,0.236387,23.6387,23.6332
920.326,194.302,223.647,,920.326,840.982,947.826,,920.326,23.1042,0.235958,23.5958,23.6256
922.499,186.461,207.684,,922.499,785.234,877.373,,922.499,23.7459,0.236711,23.6711,23.5988
924.673,171.711,193.821,,924.673,726.212,813.978,,924.673,23.6447,0.238116,23.8116,23.6208
926.847,158.778,178.338,,926.847,673.645,755.023,,926.847,23.57,0.236202,23.6202,23.6521
929.023,146.3,164.712,,929.023,616.077,698.139,,929.023,23.747,0.23593,23.593,23.6541
931.2,129.367,151.273,,931.2,561.781,640.213,,931.2,23.028,0.236286,23.6286,23.6643
933.377,124.433,138.816,,933.377,520.304,588.161,,933.377,23.9154,0.236016,23.6016,23.6598
935.556,115.499,129.426,,935.556,473.28,540.136,,935.556,24.4039,0.239617,23.9617,23.6816
937.736,105.655,118.938,,937.736,444.62,497.338,,937.736,23.763,0.23915,23.915,23.718
939.916,101.63,110.734,,939.916,412.505,461.97,,939.916,24.6373,0.2397,23.97,23.7792
942.098,92.876,104.506,,942.098,382.026,427.176,,942.098,24.3114,0.244645,24.4645,23.9051
944.28,83.213,97.0303,,944.28,357.638,396.484,,944.28,23.2674,0.244727,24.4727,24.0863
946.464,81.823,89.8723,,946.464,338.612,371.382,,946.464,24.1642,0.241994,24.1994,24.1812
948.648,77.705,84.8886,,948.648,323.405,350.131,,948.648,24.0271,0.242448,24.2448,24.2247
950.834,76.131,80.53,,950.834,304.379,331.288,,950.834,25.0119,0.243082,24.3082,24.2895
953.02,72.558,77.7191,,953.02,291.17,312.93,,953.02,24.9195,0.24836,24.836,24.3837
955.207,66.983,73.4138,,955.207,282.78,299.394,,955.207,23.6873,0.245208,24.5208,24.4123
957.396,63.954,68.6759,,957.396,274.843,289.202,,957.396,23.2693,0.237467,23.7467,24.3544
959.585,64.743,66.2028,,959.585,262.27,278.682,,959.585,24.6856,0.237557,23.7557,24.2679
961.775,62.349,64.9324,,961.775,258.151,268.507,,961.775,24.1521,0.241827,24.1827,24.2379
963.966,65.046,63.9733,,963.966,254.941,261.316,,963.966,25.5141,0.244812,24.4812,24.1918
966.159,62.469,64.5154,,966.159,249.184,255.731,,966.159,25.0694,0.252278,25.2278,24.2284
968.352,56.892,62.1036,,968.352,245.245,251.243,,968.352,23.198,0.247185,24.7185,24.3527
970.546,66.224,62.503,,970.546,243.579,247.699,,970.546,27.1879,0.252334,25.2334,24.5755
972.741,61.918,63.9608,,972.741,247.457,246.404,,972.741,25.0217,0.259576,25.9576,24.9287
974.937,61.885,62.6411,,974.937,250.154,248.187,,974.937,24.7388,0.252395,25.2395,25.1651
977.134,63.306,63.4337,,977.134,255.304,251.319,,977.134,24.7963,0.252403,25.2403,25.248
979.332,60.453,62.9889,,979.332,259.999,254.524,,979.332,23.2512,0.247478,24.7478,25.2333
981.531,67.146,63.3885,,981.531,265.33,259.407,,981.531,25.3066,0.244359,24.4359,25.1806
983.731,64.474,64.9444,,983.731,271.115,263.446,,983.731,23.7811,0.246518,24.6518,24.992
985.932,62.892,64.1611,,985.932,279.717,269.85,,985.932,22.4842,0.237766,23.7766,24.6869
988.134,67.128,65.4741,,988.134,288.592,276.398,,988.134,23.2605,0.236883,23.6883,24.3824
990.336,75.909,69.2228,,990.336,304.103,287.506,,990.336,24.9616,0.24077,24.077,24.1558
992.54,78.508,73.5876,,992.54,312.703,299.062,,992.54,25.1063,0.246061,24.6061,24.1585
994.745,86.924,79.4966,,994.745,332.031,310.388,,994.745,26.1795,0.25612,25.612,24.2911
996.951,84.885,83.3975,,996.951,345.812,325.534,,996.951,24.5466,0.256187,25.6187,24.5602
999.157,86.299,84.4709,,999.157,349.411,336.816,,999.157,24.6984,0.250792,25.0792,24.8663
1001.365,89.895,86.6227,,1001.365,361.555,346.187,,1001.365,24.8634,0.250219,25.0219,25.1008
1003.573,98.218,90.7476,,1003.573,380.062,358.838,,1003.573,25.8426,0.252893,25.2893,25.2556
1005.783,103.085,95.4545,,1005.783,394.568,373.644,,1005.783,26.126,0.255469,25.5469,25.3345
1007.993,105.042,99.4982,,1007.993,413.801,388.537,,1007.993,25.3847,0.256085,25.6085,25.3067
1010.205,115.817,104.936,,1010.205,445.124,410.293,,1010.205,26.019,0.255759,25.5759,25.3383
1012.417,117.5,111.282,,1012.417,471.173,434.633,,1012.417,24.9378,0.256036,25.6036,25.4447
1014.631,126.637,116.115,,1014.631,504.404,462.228,,1014.631,25.1063,0.251207,25.1207,25.4802
1016.845,137.227,124.575,,1016.845,547.543,494.746,,1016.845,25.0623,0.251796,25.1796,25.4337
1019.06,149.999,134.963,,1019.06,593.226,534.401,,1019.06,25.2853,0.25255,25.255,25.3607
1021.277,165.497,147.754,,1021.277,641.091,577.026,,1021.277,25.8149,0.256062,25.6062,25.3475
1023.494,172.54,158.635,,1023.494,672.682,618.95,,1023.494,25.6496,0.256297,25.6297,25.3509
1025.712,176.127,166.428,,1025.712,700.636,653.562,,1025.712,25.1382,0.254648,25.4648,25.3799
1027.931,181.623,172.627,,1027.931,723.589,684.128,,1027.931,25.1003,0.252332,25.2332,25.4129
1030.151,186.39,179.779,,1030.151,746.36,710.127,,1030.151,24.9732,0.253164,25.3164,25.4274
1032.372,189.52,184.511,,1032.372,762.675,733.866,,1032.372,24.8494,0.251423,25.1423,25.3928
1034.594,196.195,189.562,,1034.594,772.535,752.162,,1034.594,25.3963,0.252023,25.2023,25.3066
1036.817,194.687,192.533,,1036.817,784.121,766.641,,1036.817,24.8287,0.251138,25.1138,25.2287
1039.041,200.723,195.549,,1039.041,784.706,776.29,,1039.041,25.5794,0.251902,25.1902,25.1843
1041.266,198.758,197.768,,1041.266,789.018,782.075,,1041.266,25.1906,0.252876,25.2876,25.1912
1043.492,203.338,198.465,,1043.492,792.237,785.442,,1043.492,25.6663,0.252679,25.2679,25.1987
1045.718,210.19,202.31,,1045.718,793.002,788.197,,1045.718,26.5056,0.256674,25.6674,25.2787
1047.946,210.858,207.393,,1047.946,792.401,789.724,,1047.946,26.61,0.262614,26.2614,25.4488
1050.175,204.799,208.177,,1050.175,793.436,791.619,,1050.175,25.8117,0.262976,26.2976,25.6838
1052.405,205.192,206.462,,1052.405,792.47,791.89,,1052.405,25.8927,0.260721,26.0721,25.8452
1054.635,199.858,204.043,,1054.635,785.776,789.36,,1054.635,25.4345,0.258491,25.8491,25.9695
1056.867,207.068,202.731,,1056.867,787.626,786.615,,1056.867,26.2901,0.257726,25.7726,26.0287
1059.099,203.185,203.818,,1059.099,787.384,785.817,,1059.099,25.8051,0.25937,25.937,26.028
1061.333,202.302,202.735,,1061.333,773.686,781.92,,1061.333,26.1478,0.259278,25.9278,25.948
1063.567,201.053,202.311,,1063.567,766.806,775.044,,1063.567,26.2195,0.261032,26.1032,25.9265
1065.802,198.713,200.18,,1065.802,755.742,768.407,,1065.802,26.2938,0.260513,26.0513,25.9379
1068.039,194.826,198.939,,1068.039,747.405,760.279,,1068.039,26.067,0.261666,26.1666,26.0128
1070.276,192.937,195.929,,1070.276,743.794,753.164,,1070.276,25.9396,0.260142,26.0142,26.0439
1072.514,190.502,193.69,,1072.514,733.181,745.682,,1072.514,25.9829,0.25975,25.975,26.0556
1074.753,190.339,191.644,,1074.753,730.386,738.361,,1074.753,26.0601,0.259553,25.9553,26.0423
1076.993,187.628,189.808,,1076.993,723.134,732.281,,1076.993,25.9465,0.259201,25.9201,26.0151
1079.234,190.825,188.5,,1079.234,719.154,726.24,,1079.234,26.5347,0.259556,25.9556,25.9749
1081.476,190.748,189.187,,1081.476,701.537,717.852,,1081.476,27.19,0.263546,26.3546,26.0016
1083.719,186.761,189.246,,1083.719,693.645,707.543,,1083.719,26.9246,0.267469,26.7469,26.1281
1085.963,188.954,188.552,,1085.963,682.57,697.588,,1085.963,27.6827,0.270291,27.0291,26.3155
1088.208,184.327,188.07,,1088.208,679.494,689.411,,1088.208,27.1271,0.272798,27.2798,26.5621
1090.454,176.517,183.975,,1090.454,672.417,683.648,,1090.454,26.2511,0.269107,26.9107,26.7818
1092.772,174.342,180.116,,1092.772,662.701,676.076,,1092.772,26.3078,0.266414,26.6414,26.8908
1094.985,172.075,176.614,,1094.985,655.712,667.492,,1094.985,26.2425,0.264593,26.4593,26.8824
1097.197,174.078,175.344,,1097.197,655.176,661.371,,1097.197,26.5697,0.265121,26.5121,26.8099
1099.409,174.808,173.917,,1099.409,648.729,656.29,,1099.409,26.9462,0.265001,26.5001,26.6833
1101.622,172.535,173.83,,1101.622,643.735,651.077,,1101.622,26.8022,0.266988,26.6988,26.58
1103.834,174.989,174.114,,1103.834,630.558,644.368,,1103.834,27.7515,0.270209,27.0209,26.6044
1106.047,169.622,173.728,,1106.047,617.47,634.861,,1106.047,27.4705,0.273647,27.3647,26.7397
1108.259,163.709,169.419,,1108.259,604.108,622.5,,1108.259,27.0993,0.272159,27.2159,26.8938
1110.472,161.521,164.747,,1110.472,594.744,610.059,,1110.472,27.1581,0.270051,27.0051,26.9998
1112.684,162.694,162.871,,1112.684,588.197,601.125,,1112.684,27.6598,0.270944,27.0944,27.091
1114.897,159.685,162.084,,1114.897,576.102,592.421,,1114.897,27.7182,0.273595,27.3595,27.1895
1117.109,151.492,158.455,,1117.109,572.643,583.804,,1117.109,26.4549,0.271417,27.1417,27.2025
1119.321,153.842,155.466,,1119.321,558.727,574.676,,1119.321,27.5344,0.270527,27.0527,27.1486
1121.534,149.918,154.776,,1121.534,542.991,561.379,,1121.534,27.6097,0.275706,27.5706,27.2015
1123.746,141.628,150.115,,1123.746,534.618,550.187,,1123.746,26.4914,0.272843,27.2843,27.2753
1125.959,143.701,145.968,,1125.959,521.969,539.044,,1125.959,27.5306,0.270791,27.0791,27.2384
1128.171,143.771,144.255,,1128.171,512.41,527.379,,1128.171,28.0578,0.273532,27.3532,27.2225
1130.384,143.294,143.744,,1130.384,505.941,517.299,,1130.384,28.3223,0.277874,27.7874,27.338
1132.596,131.27,140.585,,1132.596,492.015,507.577,,1132.596,26.6801,0.276974,27.6974,27.4427
1134.809,128.062,134.675,,1134.809,476.541,494.825,,1134.809,26.8732,0.272167,27.2167,27.4047
1137.021,126.125,131.456,,1137.021,467.339,482.482,,1137.021,26.9879,0.272458,27.2458,27.4339
1139.233,124.823,127.11,,1139.233,447.226,469.085,,1139.233,27.9105,0.270975,27.0975,27.4283
1141.446,121.7,125.6,,1141.446,436.474,453.839,,1141.446,27.8825,0.27675,27.675,27.4332
1143.658,114.03,121.516,,1143.658,427.176,442.761,,1143.658,26.6939,0.274451,27.4451,27.3795
1145.871,114.631,118.023,,1145.871,417.603,433.352,,1145.871,27.4498,0.272349,27.2349,27.3474
1148.083,111.684,115.802,,1148.083,406.664,423.006,,1148.083,27.4635,0.273759,27.3759,27.3681
1150.296,109.19,113.409,,1150.296,397.997,412.288,,1150.296,27.4349,0.275072,27.5072,27.4305
1152.508,103.331,110.386,,1152.508,378.873,399.405,,1152.508,27.2733,0.276376,27.6376,27.4681
1154.721,105.833,108.018,,1154.721,371.929,386.306,,1154.721,28.4552,0.279617,27.9617,27.4989
1156.933,100.334,105.778,,1156.933,362.529,377.74,,1156.933,27.6761,0.280029,28.0029,27.6353
1159.145,100.378,102.119,,1159.145,345.945,365.105,,1159.145,29.0156,0.279698,27.9698,27.7507
1161.358,99.239,100.955,,1161.358,337.269,352.556,,1161.358,29.4243,0.286352,28.6352,27.9447
1163.57,90.188,98.657,,1163.57,331.501,343.465,,1163.57,27.206,0.287241,28.7241,28.1708
1165.783,87.682,94.1594,,1165.783,320.367,334.68,,1165.783,27.3692,0.281341,28.1341,28.2724
1167.995,90.992,91.8468,,1167.995,314.595,325.575,,1167.995,28.9235,0.282106,28.2106,28.2853
1170.208,93.482,92.3491,,1170.208,309.912,318.454,,1170.208,30.164,0.289992,28.9992,28.4424
1172.42,80.698,89.5048,,1172.42,302.319,311.822,,1172.42,26.693,0.287038,28.7038,28.575
1174.633,82.458,84.4434,,1174.633,293.452,303.95,,1174.633,28.0993,0.27782,27.782,28.4223
1176.845,85.307,84.9551,,1176.845,287.311,296.555,,1176.845,29.6915,0.286474,28.6474,28.4077
1179.057,77.701,82.9482,,1179.057,269.168,287.512,,1179.057,28.8671,0.288503,28.8503,28.5611
1181.27,76.366,79.359,,1181.27,259.57,275.388,,1181.27,29.4202,0.288171,28.8171,28.6091
1183.482,73.029,77.6303,,1183.482,258.334,266.759,,1183.482,28.2692,0.291012,29.1012,28.5963
1185.695,71.965,74.8568,,1185.695,253.916,260.707,,1185.695,28.3421,0.28713,28.713,28.6986
1187.907,69.353,73.1941,,1187.907,251.678,256.108,,1187.907,27.5562,0.285793,28.5793,28.8011
1190.12,64.923,69.3963,,1190.12,240.621,251.416,,1190.12,26.9814,0.276022,27.6022,28.618
1192.332,65.31,67.4232,,1192.332,233.382,244.964,,1192.332,27.9842,0.275237,27.5237,28.3638
1194.545,63.515,66.4404,,1194.545,223.506,236.57,,1194.545,28.4176,0.280849,28.0849,28.1456
1196.757,62.719,64.4545,,1196.757,220.356,227.657,,1196.757,28.4626,0.283122,28.3122,28.0254
1198.969,63.196,62.696,,1198.969,222.843,224.322,,1198.969,28.359,0.279492,27.9492,27.9142
1201.182,60.309,62.3023,,1201.182,222.693,224.009,,1201.182,27.0817,0.278124,27.8124,27.8612
1203.394,59.421,61.7015,,1203.394,227.543,224.733,,1203.394,26.1142,0.274555,27.4555,27.8994
1205.607,56.898,59.6064,,1205.607,221.393,224.578,,1205.607,25.7,0.265415,26.5415,27.7397
1207.819,57.284,57.1235,,1207.819,215.152,219.749,,1207.819,26.6249,0.259949,25.9949,27.3728
1210.032,55.397,56.7603,,1210.032,210.821,215.869,,1210.032,26.2768,0.262939,26.2939,27.008
1212.244,48.33,54.0123,,1212.244,206.855,212.013,,1212.244,23.3642,0.254759,25.4759,26.6313
1214.456,44.354,49.7678,,1214.456,197.525,207.03,,1214.456,22.4549,0.240389,24.0389,26.0139
1216.669,43.198,47.1386,,1216.669,185.106,198.968,,1216.669,23.3369,0.236916,23.6916,25.3796
1218.881,40.589,44.6021,,1218.881,171.779,188.373,,1218.881,23.6286,0.236776,23.6776,24.8844
1221.094,38.163,41.3579,,1221.094,151.726,174.676,,1221.094,25.1526,0.23677,23.677,24.4133
1223.306,39.102,40.1976,,1223.306,139.766,159.438,,1223.306,27.9768,0.25212,25.212,24.1309
1225.519,40.498,40.4017,,1225.519,124.081,145.808,,1225.519,32.6384,0.277088,27.7088,24.5205
1227.731,34.26,37.6388,,1227.731,117.488,132.501,,1227.731,29.1604,0.284065,28.4065,25.4055
1229.944,28.843,34.143,,1229.944,112.353,124.089,,1229.944,25.6718,0.27515,27.515,26.197
1232.156,26.52,30.8772,,1232.156,97.22,114.347,,1232.156,27.2783,0.27003,27.003,26.8473
1234.368,23.563,27.5846,,1234.368,97.727,105.743,,1234.368,24.111,0.260866,26.0866,27.2428
1236.581,20.882,23.6703,,1236.581,95.509,101.209,,1236.581,21.8639,0.233876,23.3876,26.8399
1238.793,17.842,20.9608,,1238.793,88.568,95.5963,,1238.793,20.145,0.219264,21.9264,25.6921
1241.006,11.351,17.4071,,1241.006,82.539,89.3296,,1241.006,13.7523,0.194864,19.4864,24.1859
1242.586,12.473,14.7733,,1242.586,79.058,86.0609,,1242.586,15.777,0.171661,17.1661,