File: public_html/data/backup/plexiglas_3H55.csv
wavelength_nm,intensity,intensity_smoothed,,wavelength_nm2,intensity_i0,intensity_i0_smoothed,,wavelength_nm3,,transmission,transmission_perc,transmission_perc_smoothed
173.232,4.4,#N/A,,173.232,26.786,#N/A,,173.232,16.4265,#N/A,#N/A,#N/A
175.084,11.536,6.59946,,175.084,38.604,29.6984,,175.084,29.8829,0.222216,22.2216,#N/A
176.935,9.809,9.1233,,176.935,36.058,34.7287,,176.935,27.2034,0.262702,26.2702,#N/A
178.787,5.99,7.80198,,178.787,36.057,35.7311,,178.787,16.6126,0.218352,21.8352,#N/A
180.639,14.444,8.89419,,180.639,33.693,36.2498,,180.639,42.8694,0.245358,24.5358,#N/A
182.491,16.808,12.2295,,182.491,35.146,34.8517,,182.491,47.8234,0.3509,35.09,#N/A
184.342,15.171,13.3952,,184.342,38.873,36.5629,,184.342,39.0271,0.366359,36.6359,27.9483
186.194,8.534,12.1277,,186.194,37.236,37.7408,,186.194,22.9187,0.321341,32.1341,29.7608
188.046,5.898,9.44695,,188.046,41.599,37.9195,,188.046,14.1782,0.249132,24.9132,30.1967
189.897,13.988,10.1238,,189.897,38.507,39.5136,,189.897,36.3259,0.256211,25.6211,30.6823
191.749,9.442,11.4636,,191.749,31.688,37.3555,,191.749,29.7968,0.306879,30.6879,30.7552
193.601,10.805,10.801,,193.601,33.505,35.5764,,193.601,32.2489,0.303599,30.3599,29.484
195.453,14.26,11.7078,,195.453,33.504,35.1224,,195.453,42.5621,0.333342,33.3342,28.7095
197.304,14.168,13.9684,,197.304,32.14,34.8236,,197.304,44.0821,0.401118,40.1118,30.4477
199.156,8.168,11.8446,,199.156,31.503,33.8949,,199.156,25.9277,0.34945,34.945,32.988
201.008,10.168,10.7942,,201.008,34.684,33.8897,,201.008,29.3161,0.318509,31.8509,33.7
202.86,17.167,12.2693,,202.86,34.683,34.1697,,202.86,49.4969,0.359071,35.9071,34.5058
204.711,14.349,14.3014,,204.711,35.227,35.1271,,204.711,40.733,0.407131,40.7131,36.2639
206.563,15.894,14.8293,,206.563,32.136,34.3423,,206.563,49.4586,0.431808,43.1808,37.3988
208.415,16.257,15.6894,,208.415,36.68,34.8728,,208.415,44.3212,0.449904,44.9904,38.5715
210.267,16.711,16.4703,,210.267,34.316,35.8565,,210.267,48.6974,0.459339,45.9339,41.0438
212.118,13.62,17.0808,,212.118,32.679,35.2305,,212.118,41.6781,0.484831,48.4831,43.8463
213.97,19.074,17.3673,,213.97,29.859,33.8215,,213.97,63.8802,0.513499,51.3499,45.929
215.822,17.892,17.5045,,215.822,29.859,31.0561,,215.822,59.9216,0.56364,56.364,48.4867
217.673,15.618,16.9505,,217.673,35.858,33.0981,,217.673,43.5551,0.512128,51.2128,50.0932
219.525,13.345,15.7161,,219.525,29.402,33.5853,,219.525,45.3881,0.467944,46.7944,50.5815
221.377,12.163,14.2392,,221.377,33.31,32.2544,,221.377,36.5146,0.441465,44.1465,50.1904
223.229,11.981,12.3958,,223.229,37.764,34.2879,,223.229,31.726,0.361522,36.1522,48.2251
225.08,18.253,13.8407,,225.08,38.763,35.4599,,225.08,47.0887,0.390319,39.0319,45.1023
226.932,13.253,15.1617,,226.932,38.217,37.2011,,226.932,34.6783,0.407561,40.7561,42.4308
228.784,10.616,13.418,,228.784,32.761,36.0345,,228.784,32.4044,0.372365,37.2365,40.3865
230.636,9.615,11.9799,,230.636,29.397,34.1797,,230.636,32.7074,0.350497,35.0497,38.4757
232.487,12.161,12.3117,,232.487,33.214,33.1807,,232.487,36.6141,0.371048,37.1048,37.7646
234.339,13.706,13.6465,,234.339,34.304,34.4358,,234.339,39.9545,0.396288,39.6288,38.3026
236.191,17.796,15.2146,,236.191,27.485,31.4748,,236.191,64.748,0.483388,48.3388,39.1549
238.043,21.068,17.2743,,238.043,35.848,30.3274,,238.043,58.7704,0.569594,56.9594,42.2125
239.894,15.522,17.3329,,239.894,44.574,35.5211,,239.894,34.823,0.487959,48.7959,45.2157
241.746,10.431,14.8467,,241.746,53.482,42.8589,,241.746,19.5038,0.346409,34.6409,45.7151
243.598,6.158,12.2498,,243.598,62.208,50.6793,,243.598,9.89905,0.241711,24.1711,43.5939
245.449,3.157,8.51461,,245.449,62.662,56.7962,,245.449,5.03814,0.149915,14.9915,38.8262
247.301,13.157,8.83765,,247.301,66.025,60.0306,,247.301,19.9273,0.147219,14.7219,31.4005
249.153,13.429,11.107,,249.153,75.569,66.0606,,249.153,17.7705,0.168134,16.8134,24.1048
251.005,14.974,11.6767,,251.005,79.023,71.749,,251.005,18.9489,0.162744,16.2744,19.1156
252.856,14.519,14.0855,,252.856,77.567,74.9429,,252.856,18.718,0.18795,18.795,16.8479
254.681,9.428,13.5046,,254.681,79.021,76.3829,,254.681,11.931,0.176801,17.6801,16.607
256.513,14.518,13.0614,,256.513,83.292,79.0528,,256.513,17.4302,0.165223,16.5223,17.1165
258.347,15.245,14.5307,,258.347,84.019,82.1099,,258.347,18.1447,0.176967,17.6967,17.3346
260.181,15.245,14.9448,,260.181,84.472,83.6374,,260.181,18.0474,0.178686,17.8686,17.539
262.017,15.244,15.3309,,262.017,81.108,83.7727,,262.017,18.7947,0.183006,18.3006,17.6532
263.853,13.88,14.8227,,263.853,85.197,83.7059,,263.853,16.2917,0.177081,17.7081,17.5219
265.691,14.97,14.3844,,265.691,83.469,84.7439,,265.691,17.9348,0.16974,16.974,17.5806
267.53,16.152,15.2626,,267.53,78.923,83.0577,,267.53,20.4655,0.18376,18.376,17.7595
269.369,11.06,14.7984,,269.369,82.013,82.1681,,269.369,13.4857,0.1801,18.01,17.8298
271.21,13.605,13.7977,,271.21,81.648,82.5729,,271.21,16.663,0.167097,16.7097,17.6056
273.052,9.059,13.349,,273.052,78.374,81.0571,,273.052,11.5587,0.164686,16.4686,17.2835
274.895,12.423,12.4369,,274.895,79.009,79.5774,,274.895,15.7235,0.156287,15.6287,16.9723
276.739,11.513,13.5063,,276.739,83.554,81.013,,276.739,13.7791,0.166718,16.6718,16.7593
278.584,9.149,12.6493,,278.584,79.462,81.556,,278.584,11.5137,0.155099,15.5099,16.2775
280.431,11.966,11.4724,,280.431,84.461,81.9941,,280.431,14.1675,0.139918,13.9918,15.7392
282.278,17.602,13.3425,,282.278,87.55,84.3235,,282.278,20.1051,0.15823,15.823,15.4171
284.126,12.693,13.5779,,284.126,87.549,85.4577,,284.126,14.4982,0.158884,15.8884,15.5223
285.976,14.42,12.6999,,285.976,89.821,87.2231,,285.976,16.0542,0.145602,14.5602,15.296
287.826,11.328,14.0442,,287.826,86.82,87.5194,,287.826,13.0477,0.160469,16.0469,15.2055
289.678,12.873,13.469,,289.678,88.001,87.5632,,289.678,14.6282,0.15382,15.382,15.3621
291.531,13.691,14.2123,,291.531,82.999,86.9141,,291.531,16.4954,0.163521,16.3521,15.6516
293.385,17.963,15.2453,,293.385,86.544,86.0818,,293.385,20.7559,0.177103,17.7103,15.8101
295.239,15.053,17.2755,,295.239,83.452,86.6223,,295.239,18.0379,0.199435,19.9435,16.6127
297.095,11.962,14.7422,,297.095,80.632,83.1922,,297.095,14.8353,0.177207,17.7207,17.2353
298.952,18.961,14.7869,,298.952,84.904,83.8708,,298.952,22.3323,0.176306,17.6306,17.5784
300.81,19.779,17.1869,,300.81,81.721,82.882,,300.81,24.2031,0.207366,20.7366,18.4094
302.669,16.415,17.899,,302.669,90.811,84.7768,,302.669,18.076,0.211131,21.1131,19.3024
304.53,17.141,18.0371,,304.53,88.537,86.7993,,304.53,19.3603,0.207802,20.7802,19.6502
306.391,16.05,17.8625,,306.391,85.536,86.9114,,306.391,18.764,0.205526,20.5526,19.9311
308.253,13.504,16.8176,,308.253,82.171,84.5328,,308.253,16.434,0.198948,19.8948,20.4398
310.117,12.503,15.3533,,310.117,84.624,82.3974,,310.117,14.7748,0.186333,18.6333,20.4098
311.981,14.139,14.3673,,311.981,90.623,85.0406,,311.981,15.602,0.168947,16.8947,19.6186
313.847,16.139,15.039,,313.847,85.258,86.5371,,313.847,18.9296,0.173787,17.3787,18.936
315.713,11.865,15.3909,,315.713,86.621,85.0832,,315.713,13.6976,0.180892,18.0892,18.4261
317.581,12.047,14.0274,,317.581,89.074,85.5077,,317.581,13.5247,0.164048,16.4048,17.751
319.45,15.878,14.9038,,319.45,86.709,86.1281,,319.45,18.3118,0.173042,17.3042,17.2335
321.319,17.422,16.2544,,321.319,85.071,85.8514,,321.319,20.4794,0.189331,18.9331,17.3689
323.19,19.421,17.9193,,323.19,89.525,86.5611,,323.19,21.6934,0.207013,20.7013,17.9568
325.062,13.057,17.2258,,325.062,82.524,87.1706,,325.062,15.8221,0.19761,19.761,18.4114
326.935,9.056,13.3368,,326.935,88.25,86.2735,,326.935,10.2618,0.154588,15.4588,18.3375
328.809,9.146,11.2096,,328.809,91.521,87.842,,328.809,9.99333,0.127611,12.7611,17.8176
330.685,11.963,11.2365,,330.685,97.156,91.0015,,330.685,12.3132,0.123476,12.3476,16.7375
332.561,13.144,12.2801,,332.561,89.337,92.2346,,332.561,14.7128,0.133139,13.3139,15.4852
334.438,16.325,13.2267,,334.438,91.608,90.0201,,334.438,17.8205,0.146931,14.6931,14.2745
336.316,17.051,14.944,,336.316,91.879,91.5528,,336.316,18.5581,0.163228,16.3228,13.8943
338.196,10.686,14.4389,,338.196,87.424,90.232,,338.196,12.2232,0.16002,16.002,14.2697
340.076,11.322,12.4585,,340.076,90.422,89.0709,,340.076,12.5213,0.139872,13.9872,14.6963
341.958,14.139,12.6076,,341.958,88.694,88.8436,,341.958,15.9413,0.141908,14.1908,14.9381
343.84,13.411,13.2253,,343.84,88.42,88.2726,,343.84,15.1674,0.149824,14.9824,15.1438
345.724,11.137,12.4274,,345.724,94.418,90.3649,,345.724,11.7954,0.137525,13.7525,14.9221
347.609,13.956,12.2086,,347.609,94.789,93.2687,,347.609,14.7232,0.130898,13.0898,14.3166
349.495,16.313,13.8082,,349.495,91.155,93.6846,,349.495,17.8959,0.14739,14.739,14.1793
351.382,11.974,14.7019,,351.382,90.863,92.7503,,351.382,13.1781,0.158511,15.8511,14.5547
353.269,12.451,13.3229,,353.269,93.89,92.5566,,353.269,13.2613,0.143943,14.3943,14.5638
355.158,18.302,14.5319,,355.158,91.527,92.7964,,355.158,19.9963,0.1566,15.66,14.6121
357.048,16.232,15.9825,,357.048,92.684,93.1377,,357.048,17.5133,0.171601,17.1601,15.2659
358.94,17.08,16.5761,,358.94,95.218,94.2336,,358.94,17.9378,0.175904,17.5904,15.9377
360.832,17.464,16.5938,,360.832,96.431,95.4034,,360.832,18.1104,0.173933,17.3933,16.268
362.725,11.629,14.2896,,362.725,93.62,95.0673,,362.725,12.4215,0.15031,15.031,16.4022
364.619,11.534,11.7396,,364.619,105.359,96.5883,,364.619,10.9473,0.121542,12.1542,16.0778
366.515,15.106,12.7471,,366.515,104.282,101.133,,366.515,14.4857,0.126043,12.6043,15.2952
368.411,13.593,13.258,,368.411,101.47,101.551,,368.411,13.3961,0.130555,13.0555,14.4715
370.308,18.201,14.4447,,370.308,97.975,100.897,,370.308,18.5772,0.143163,14.3163,13.7929
372.207,21.042,17.2315,,372.207,105.848,101.347,,372.207,19.8794,0.170025,17.0025,13.7239
374.107,18.478,18.383,,374.107,105.608,103.386,,374.107,17.4968,0.17781,17.781,14.4568
376.007,13.469,17.3354,,376.007,106.189,104.33,,376.007,12.684,0.166159,16.6159,15.3674
377.909,11.32,14.3336,,377.909,105.226,104.795,,377.909,10.7578,0.136778,13.6778,15.654
379.812,14.535,13.4937,,379.812,111.582,106.882,,379.812,13.0263,0.126248,12.6248,15.5181
381.716,11.641,12.7277,,381.716,114.291,109.895,,381.716,10.1854,0.115817,11.5817,14.8536
383.62,16.986,12.8319,,383.62,112.097,112.163,,383.62,15.1529,0.114405,11.4405,13.6997
385.526,19.892,15.8008,,385.526,116.28,112.79,,385.526,17.107,0.14009,14.009,12.9462
387.433,17.008,16.7507,,387.433,115.424,114.342,,387.433,14.7352,0.146497,14.6497,12.8558
389.341,15.889,16.2067,,389.341,119.767,115.64,,389.341,13.2666,0.140148,14.0148,13.1204
391.25,16.126,15.9462,,391.25,130.241,120.838,,391.25,12.3817,0.131964,13.1964,13.3621
393.161,15.274,15.1443,,393.161,141.583,128.167,,393.161,10.788,0.118161,11.8161,13.5304
395.072,19.105,16.5809,,395.072,162.278,140.311,,395.072,11.773,0.118173,11.8173,13.3737
396.984,13.026,15.9825,,396.984,184.699,157.71,,396.984,7.05256,0.101341,10.1341,12.6368
398.897,15.588,15.6028,,398.897,227.497,182.636,,398.897,6.85196,0.0854309,8.54309,11.5788
400.812,22.402,17.2867,,400.812,289.932,221.57,,400.812,7.72664,0.0780193,7.80193,10.4649
402.727,22.077,19.3105,,402.727,375.612,277.644,,402.727,5.87761,0.0695515,6.95515,9.47696
404.644,25.068,20.1579,,404.644,524.35,364.121,,404.644,4.78078,0.0553603,5.53603,8.3612
406.561,29.793,23.6187,,406.561,752.631,501.419,,406.561,3.95851,0.0471037,4.71037,7.17124
408.48,31.762,27.0659,,408.48,1090.276,712.968,,408.48,2.91321,0.0379623,3.79623,6.17111
410.4,36.593,30.3366,,410.4,1576.714,1024.69,,410.4,2.32084,0.0296057,2.96057,5.23829
412.32,44.634,35.7917,,412.32,2292.428,1484.04,,412.32,1.94702,0.0241177,2.41177,4.28976
414.242,49.497,41.6296,,414.242,3303.056,2146.55,,414.242,1.49852,0.0193937,1.93937,3.48533
416.165,57.119,47.6789,,416.165,4719.128,3089.8,,416.165,1.21037,0.015431,1.5431,2.81454
418.089,69.518,55.6288,,418.089,6623.23,4399.73,,418.089,1.04961,0.0126437,1.26437,2.2461
420.014,72.825,64.1298,,420.014,9137.17,6168.31,,420.014,0.797019,0.0103966,1.03966,1.80843
421.939,77.244,69.7874,,421.939,12355.714,8501.15,,421.939,0.625168,0.00820917,0.820917,1.46248
423.866,83.436,75.4175,,423.866,16253.351,11472.2,,423.866,0.513346,0.00657395,0.657395,1.17726
425.795,83.332,79.4699,,425.795,20920.267,15116.3,,425.795,0.398331,0.00525725,0.525725,0.950722
427.724,87.885,82.1394,,427.724,26342.847,19491.6,,427.724,0.33362,0.00421409,0.421409,0.7675
429.654,82.012,85.2332,,429.654,32472.644,24593,,429.654,0.252557,0.00346576,0.346576,0.61588
431.585,75.615,82.2783,,431.585,39466.603,30450.9,,431.585,0.191592,0.002702,0.2702,0.492434
433.517,79.687,80.4665,,433.517,47212.176,37095.6,,433.517,0.168785,0.00216917,0.216917,0.394632
435.451,70.814,78.1849,,435.451,57567.013,44916.7,,435.451,0.123011,0.00174067,0.174067,0.316459
437.385,62.985,71.2588,,437.385,64000,53518.3,,437.385,0.0984141,0.00133148,0.133148,0.2533
439.32,58.632,65.6493,,439.32,64000,58986.7,,439.32,0.0916125,0.00111295,0.111295,0.201736
441.257,43.904,57.8506,,441.257,64000,61602.1,,441.257,0.0686,0.000939101,0.0939101,0.161292
443.194,36.06,48.5884,,443.194,63787.125,62827.3,,443.194,0.0565318,0.000773364,0.0773364,0.130505
445.133,25.68,38.7141,,445.133,62883.234,63135.6,,445.133,0.0408376,0.000613189,0.0613189,0.105343
447.072,23.839,31.3,,447.072,61142.14,62615.5,,447.072,0.0389895,0.000499876,0.0499876,0.0859519
449.013,16.509,25.507,,449.013,56984.331,60958,,449.013,0.0289711,0.000418436,0.0418436,0.0710901
450.955,18.665,21.3846,,450.955,48943.691,56974.3,,450.955,0.0381357,0.000375337,0.0375337,0.0585887
452.897,18.326,21.068,,452.897,40056.044,50478,,452.897,0.0457509,0.000417369,0.0417369,0.0497412
454.841,12.897,18.8469,,454.841,32726.301,43097.4,,454.841,0.0394087,0.000437309,0.0437309,0.0445716
456.786,14.793,15.5817,,456.786,27131.96,36193.8,,456.786,0.0545224,0.000430508,0.0430508,0.0421048
458.732,17.951,16.3425,,458.732,22827.2,30323.6,,458.732,0.0786386,0.000538936,0.0538936,0.0427531
460.679,9.6,15.9174,,460.679,19324.818,25488.8,,460.679,0.0496771,0.000624484,0.0624484,0.0469842
462.627,10.274,12.8954,,462.627,16380.89,21505.9,,462.627,0.0627194,0.000599621,0.0599621,0.0510498
464.576,8.807,12.1216,,464.576,13857.231,18175.3,,464.576,0.0635553,0.000666927,0.0666927,0.0550983
466.526,17.963,12.6934,,466.526,11729.578,15364,,466.526,0.153143,0.000826183,0.0826183,0.0613124
468.477,15.748,16.1212,,468.477,9995.534,13006.5,,468.477,0.15755,0.00123947,0.123947,0.0736532
470.429,14.14,15.0414,,470.429,8656.172,11077,,470.429,0.163352,0.00135789,0.135789,0.0876525
472.382,13.432,14.8142,,472.382,7635.598,9541.11,,472.382,0.175913,0.00155267,0.155267,0.104443
474.336,16.633,14.8989,,474.336,6854.628,8338.67,,474.336,0.242654,0.00178673,0.178673,0.124989
476.292,18.477,16.8393,,476.292,6260.377,7405.36,,476.292,0.295142,0.00227394,0.227394,0.151795
478.248,20.287,18.3578,,478.248,5803.889,6686.65,,478.248,0.349541,0.00274543,0.274543,0.181895
480.205,20.619,19.3603,,480.205,5461.718,6135.55,,480.205,0.377519,0.00315544,0.315544,0.214764
482.164,17.505,19.2971,,482.164,5237.861,5720.76,,482.164,0.334201,0.00337317,0.337317,0.250856
484.123,12.267,16.2965,,484.123,5160.507,5444.05,,484.123,0.237709,0.00299345,0.299345,0.280012
486.083,14.699,15.0395,,486.083,5228.466,5308.26,,486.083,0.281134,0.00283322,0.283322,0.29675
488.045,13.41,15.318,,488.045,5480.019,5324.94,,488.045,0.244707,0.00287665,0.287665,0.304857
490.007,16.054,14.6576,,490.007,5891.004,5504.92,,490.007,0.272517,0.00266263,0.266263,0.301118
491.971,17.622,16.597,,491.971,6468.471,5846.97,,491.971,0.272429,0.00283857,0.283857,0.291146
493.936,17.267,17.1746,,493.936,7190.779,6348.99,,493.936,0.240127,0.0027051,0.27051,0.281429
495.901,19.651,17.8778,,495.901,8029.417,6994.04,,495.901,0.244738,0.00255614,0.255614,0.275655
497.868,15.846,17.1794,,497.868,9011.373,7778.88,,497.868,0.175844,0.00220847,0.220847,0.265091
499.836,13.583,15.6022,,499.836,10104.749,8696.37,,499.836,0.134422,0.00179411,0.179411,0.248826
501.804,10.559,11.9922,,501.804,11270.159,9726.87,,501.804,0.0936899,0.0012329,0.12329,0.223816
503.774,13.542,12.1493,,503.774,12464.423,10834.2,,503.774,0.108645,0.00112139,0.112139,0.191838
505.745,7.753,11.2622,,505.745,13673.219,11989.4,,505.745,0.0567021,0.000939352,0.0939352,0.160976
507.717,11.083,9.31026,,507.717,14872.93,13172.9,,507.717,0.0745179,0.000706772,0.0706772,0.129511
509.69,10.557,10.4658,,509.69,16056.998,14363.8,,509.69,0.065747,0.000728623,0.0728623,0.104687
511.664,8.702,9.43161,,511.664,17217.394,15546.2,,511.664,0.0505419,0.000606684,0.0606684,0.0876485
513.639,12.31,9.46249,,513.639,18283.309,16693.9,,513.639,0.0673292,0.000566824,0.0566824,0.0764227
515.615,14.87,11.4957,,515.615,19258.438,17775.9,,515.615,0.0772129,0.000646704,0.0646704,0.0680364
517.592,20.139,14.5646,,517.592,20128.144,18776.6,,517.592,0.100054,0.000775679,0.0775679,0.0664812
519.57,15.66,16.2986,,519.57,20880.749,19677.7,,519.57,0.0749973,0.000828277,0.0828277,0.0686236
521.549,13.046,15.6233,,521.549,21567.103,20481.6,,521.549,0.0604903,0.000762801,0.0762801,0.0705776
523.529,17.518,15.9436,,523.529,22195.328,21213.8,,523.529,0.0789265,0.000751569,0.0751569,0.0738454
525.51,10.439,15.4979,,525.51,22691.129,21857.8,,525.51,0.0460048,0.00070903,0.070903,0.0763382
527.493,9.622,12.6781,,527.493,23058.875,22393.1,,527.493,0.041728,0.000566161,0.0566161,0.0743228
529.476,12.606,12.214,,529.476,23304.066,22803.7,,529.476,0.0540936,0.000535614,0.0535614,0.0687809
531.46,14.136,12.9976,,531.46,23470.938,23114.7,,531.46,0.0602277,0.000562308,0.0562308,0.0636989
533.446,14.916,13.3087,,533.446,23511.018,23315.5,,533.446,0.0634426,0.000570807,0.0570807,0.0602955
535.432,16.605,15.169,,535.432,23522.14,23420.3,,535.432,0.0705931,0.000647685,0.0647685,0.0580482
537.419,11.4,14.2264,,537.419,23550.666,23479.6,,537.419,0.0484063,0.000605907,0.0605907,0.0579268
539.408,17.565,14.6855,,539.408,23514.322,23508.5,,539.408,0.0746992,0.000624686,0.0624686,0.059208
541.397,13.568,15.3193,,541.397,23421.676,23487.5,,541.397,0.0579292,0.000652232,0.0652232,0.0615944
543.388,17.656,14.5631,,543.388,23308.611,23427,,543.388,0.0757488,0.000621638,0.0621638,0.0627637
545.379,21.336,18.1474,,545.379,23191.606,23337.7,,545.379,0.0919988,0.0007776,0.07776,0.0651711
547.372,11.959,17.1959,,547.372,23067.082,23233,,547.372,0.0518444,0.000740152,0.0740152,0.0676233
549.365,13.255,14.5539,,549.365,22873.453,23102.2,,549.365,0.0579493,0.000629976,0.0629976,0.0687851
551.36,17.56,14.7492,,551.36,22657.524,22929.7,,551.36,0.0775018,0.000643238,0.0643238,0.0684182
553.356,28.253,18.5773,,553.356,22458.012,22738.3,,553.356,0.125804,0.000817008,0.0817008,0.0706846
555.352,29.093,23.6368,,555.352,22260.207,22544.8,,555.352,0.130695,0.00104844,0.104844,0.0763202
557.35,34.223,27.2094,,557.35,21989.908,22330.1,,557.35,0.15563,0.00121851,0.121851,0.0834729
559.349,41.507,32.159,,559.349,21709.137,22080.9,,559.349,0.191196,0.00145642,0.145642,0.0967229
561.348,56.531,40.8068,,561.348,21446.354,21819.4,,561.348,0.263593,0.00187021,0.187021,0.117672
563.349,70.049,53.2222,,563.349,21149.204,21549.7,,563.349,0.331213,0.00246974,0.246974,0.147851
565.351,92.012,67.4638,,565.351,20809.542,21256.4,,565.351,0.442163,0.00317381,0.317381,0.186263
567.354,129.662,90.1457,,567.354,20445.19,20936.2,,567.354,0.634193,0.00430574,0.430574,0.239764
569.358,175.33,122.362,,569.358,20090.264,20589.1,,569.358,0.872711,0.00594305,0.594305,0.317731
571.363,237.882,165.223,,571.363,19686.427,20228.3,,571.363,1.20836,0.00816793,0.816793,0.42879
573.368,326.659,224.697,,573.368,19315.428,19846,,573.368,1.69118,0.0113221,1.13221,0.584525
575.375,434.68,304.419,,575.375,18986.807,19488.9,,575.375,2.28938,0.0156201,1.56201,0.803528
577.383,565.647,404.593,,577.383,18574.161,19122.9,,577.383,3.04534,0.0211576,2.11576,1.10398
579.392,722.57,526.846,,579.392,18171.353,18727.8,,579.392,3.97642,0.0281318,2.81318,1.50313
581.402,895.355,672.176,,581.402,17776.569,18343.2,,581.402,5.03671,0.0366444,3.66444,2.01955
583.413,1090.434,836.974,,583.413,17345.495,17939.5,,583.413,6.28655,0.0466553,4.66553,2.66787
585.425,1330.791,1030.1,,585.425,16927.19,17522,,585.425,7.86185,0.0587889,5.87889,3.46445
587.439,1572.223,1248.5,,587.439,16478.458,17098.9,,587.439,9.54108,0.0730167,7.30167,4.42841
589.453,1843.171,1486.93,,589.453,16021.565,16657.7,,589.453,11.5043,0.0892637,8.92637,5.57164
591.468,2122.415,1745.65,,591.468,15595.936,16217,,591.468,13.6088,0.107643,10.7643,6.90721
593.484,2401.038,2013.79,,593.484,15135.761,15776.2,,593.484,15.8633,0.127647,12.7647,8.43989
595.501,2678.906,2287.45,,595.501,14661.348,15320.5,,595.501,18.2719,0.149307,14.9307,10.1679
597.519,2948.444,2561.14,,597.519,14208.392,14858.6,,597.519,20.7514,0.172367,17.2367,12.0778
599.539,3204.405,2830.04,,599.539,13742.769,14406.5,,599.539,23.317,0.196442,19.6442,14.1535
601.559,3440.659,3087.79,,601.559,13250.632,13937.9,,601.559,25.966,0.221538,22.1538,16.3731
603.58,3657.524,3328.78,,603.58,12766.031,13456.8,,603.58,28.6504,0.247367,24.7367,18.7171
605.602,3842.743,3548.15,,605.602,12339.477,12986.6,,605.602,31.1419,0.273217,27.3217,21.1594
607.626,4009.758,3746.87,,607.626,11850.801,12526.1,,607.626,33.8353,0.299126,29.9126,23.6685
609.65,4123.82,3914.57,,609.65,11365.108,12046.9,,609.65,36.2849,0.324943,32.4943,26.2234
611.675,4225.968,4049.3,,611.675,10930.839,11580.6,,611.675,38.661,0.349662,34.9662,28.7878
613.702,4294.539,4161.27,,613.702,10480.543,11125.3,,613.702,40.9763,0.374037,37.4037,31.3333
615.729,4314.788,4236.11,,615.729,10058.86,10678.5,,615.729,42.8954,0.396696,39.6696,33.8283
617.757,4336.245,4282.33,,617.757,9626.625,10242.3,,617.757,45.0443,0.418104,41.8104,36.2443
619.787,4304.902,4303.57,,619.787,9178.597,9804.92,,619.787,46.9015,0.438919,43.8919,38.5679
621.817,4248.779,4289.17,,621.817,8739.57,9363.02,,621.817,48.6154,0.458097,45.8097,40.7839
623.849,4196.802,4254.98,,623.849,8378.301,8944.18,,623.849,50.0913,0.475726,47.5726,42.8773
625.881,4147.764,4213.11,,625.881,8018.036,8559.97,,625.881,51.7304,0.492188,49.2188,44.8369
627.915,4065.296,4158.42,,627.915,7612.591,8173.49,,627.915,53.4023,0.508769,50.8769,46.6946
629.949,3969.025,4085.31,,629.949,7253.439,7787.88,,629.949,54.7192,0.524573,52.4573,48.4542
631.985,3852.236,3995.71,,631.985,6920.723,7425.09,,631.985,55.6623,0.538136,53.8136,50.1033
634.021,3719.129,3886.39,,634.021,6588.839,7077.77,,634.021,56.4459,0.549098,54.9098,51.6228
636.059,3582.349,3765.12,,636.059,6255.693,6735.87,,636.059,57.2654,0.558966,55.8966,53.0113
638.098,3435.786,3633.45,,638.098,5940.561,6402.08,,638.098,57.8361,0.567542,56.7542,54.2583
640.137,3293.571,3492.37,,640.137,5647.062,6082.74,,640.137,58.3236,0.574145,57.4145,55.3294
642.178,3154.418,3353.75,,642.178,5351.739,5777.91,,642.178,58.9419,0.580443,58.0443,56.2369
644.219,3008.968,3211.8,,644.219,5077.458,5483.36,,644.219,59.2613,0.585736,58.5736,57.0193
646.262,2868.664,3069.86,,646.262,4811.13,5203.37,,646.262,59.6256,0.589976,58.9976,57.688
648.306,2735.192,2932.32,,648.306,4540.322,4928.5,,648.306,60.2422,0.594972,59.4972,58.2682
650.35,2590.876,2794.43,,650.35,4299.885,4664.42,,650.35,60.2545,0.599095,59.9095,58.7902
652.396,2453.594,2652.65,,652.396,4069.196,4416.55,,652.396,60.2968,0.600617,60.0617,59.2336
654.443,2329.524,2517.79,,654.443,3845.692,4178.94,,654.443,60.5749,0.602494,60.2494,59.5935
656.49,2205.569,2387.26,,656.49,3614.831,3945.61,,656.49,61.0144,0.605042,60.5042,59.9074
658.539,2085.943,2262.43,,658.539,3395.884,3715.16,,658.539,61.4256,0.608972,60.8972,60.2049
660.589,1958.202,2137.31,,660.589,3212.113,3501.78,,660.589,60.963,0.610349,61.0349,60.4559
662.64,1849.771,2016.11,,662.64,3008.504,3299.99,,662.64,61.4847,0.610945,61.0945,60.6612
664.691,1742.174,1902.02,,664.691,2825.846,3101.62,,664.691,61.6514,0.613235,61.3235,60.875
666.744,1636.196,1790.77,,666.744,2665.607,2917.05,,666.744,61.3817,0.613899,61.3899,61.0737
668.798,1545.715,1686.87,,668.798,2508.898,2745.46,,668.798,61.6093,0.614422,61.4422,61.2184
670.853,1455.333,1589.2,,670.853,2354.692,2582.3,,670.853,61.8057,0.615422,61.5422,61.3181
672.909,1367.242,1497.24,,672.909,2213.672,2427.68,,672.909,61.7635,0.616738,61.6738,61.4315
674.965,1286.996,1409.01,,674.965,2086.494,2283.43,,674.965,61.6822,0.617059,61.7059,61.5246
677.023,1207.965,1326.31,,677.023,1964.424,2148.24,,677.023,61.4921,0.617394,61.7394,61.5901
679.082,1129.67,1243.84,,679.082,1847.565,2022.54,,679.082,61.1437,0.614986,61.4986,61.6212
681.142,1061.579,1166.71,,681.142,1737.729,1903.79,,681.142,61.09,0.612837,61.2837,61.5924
683.203,992.996,1094.15,,683.203,1629.665,1789.43,,683.203,60.9325,0.61145,61.145,61.5139
685.265,929.917,1024.82,,685.265,1520.884,1678.67,,685.265,61.1432,0.610497,61.0497,61.3975
687.327,873.285,961.108,,687.327,1427.089,1572.32,,687.327,61.1935,0.611266,61.1266,61.2801
689.391,813.195,900.576,,689.391,1342.555,1474.85,,689.391,60.5707,0.610624,61.0624,61.1791
691.456,758.634,841.115,,691.456,1266.909,1386.44,,691.456,59.8807,0.606672,60.6672,61.0634
693.522,706.977,785.285,,693.522,1181.382,1302.62,,693.522,59.8432,0.602849,60.2849,60.9017
695.589,664.573,733.429,,695.589,1099.399,1217.94,,695.589,60.4488,0.602188,60.2188,60.7343
697.657,623.139,686.951,,697.657,1034.453,1139.18,,697.657,60.2385,0.603025,60.3025,60.5868
699.726,579.03,643.158,,699.726,971.408,1066.88,,699.726,59.6073,0.602837,60.2837,60.4294
701.796,534.664,597.922,,701.796,917.503,1001.66,,701.796,58.2738,0.59693,59.693,60.2393
703.867,506.485,557.705,,703.867,861.064,943.417,,703.867,58.8208,0.591154,59.1154,60.0054
705.939,467.587,521.294,,705.939,804.537,885.41,,705.939,58.1188,0.58876,58.876,59.768
708.012,440.562,486.072,,708.012,759.323,831.585,,708.012,58.0204,0.584513,58.4513,59.4462
710.085,411.68,456.006,,710.085,719.139,783.449,,710.085,57.2462,0.582049,58.2049,59.0571
712.16,376.745,423.456,,712.16,670.14,738.668,,712.16,56.2188,0.57327,57.327,58.5836
714.236,356.757,393.563,,714.236,626.682,690.974,,714.236,56.9279,0.569578,56.9578,58.1296
716.313,333.089,367.649,,716.313,586.621,647.561,,716.313,56.781,0.567744,56.7744,57.7196
718.391,306.568,342.588,,718.391,553.42,606.872,,718.391,55.3952,0.564515,56.4515,57.3188
720.47,279.837,317.433,,720.47,515.553,569.744,,720.47,54.279,0.55715,55.715,56.8655
722.55,266.49,293.857,,722.55,489.289,534.375,,722.55,54.4647,0.549909,54.9909,56.3608
724.631,253.141,276.366,,724.631,456.046,503.092,,724.631,55.5078,0.549336,54.9336,55.939
726.713,232.664,258.842,,726.713,427.384,471.345,,726.713,54.4391,0.549155,54.9155,55.5705
728.796,211.377,239.693,,728.796,406.484,444.036,,728.796,52.0013,0.539805,53.9805,55.1225
730.88,198.155,222.278,,730.88,378.822,417.772,,730.88,52.3082,0.532057,53.2057,54.5962
732.965,188.63,207.382,,732.965,361.79,392.676,,732.965,52.138,0.528125,52.8125,54.1325
735.051,179.375,195.785,,735.051,344.187,371.911,,735.051,52.1156,0.526429,52.6429,53.7168
737.138,171.023,184.757,,737.138,327.822,352.608,,737.138,52.1695,0.523972,52.3972,53.2383
739.226,160.355,174.258,,739.226,309.223,335.6,,739.226,51.8574,0.519244,51.9244,52.7639
741.315,146.475,162.928,,741.315,291.064,317.051,,741.315,50.324,0.513886,51.3886,52.375
743.405,135.521,152.034,,743.405,276.402,299.691,,743.405,49.0304,0.5073,50.73,51.9946
745.496,121.41,139.773,,745.496,267.689,285.57,,745.496,45.3549,0.489453,48.9453,51.389
747.588,119.457,130.603,,747.588,249.668,272.766,,747.588,47.8463,0.478811,47.8811,50.537
749.681,107.532,121.667,,749.681,240.994,258.037,,749.681,44.6202,0.47151,47.151,49.6341
751.775,105.916,113.945,,751.775,237.1,248.653,,751.775,44.6714,0.458249,45.8249,48.5861
753.87,99.189,109.737,,753.87,228.541,240.406,,753.87,43.401,0.456467,45.6467,47.5346
755.966,88.556,102.135,,755.966,222.743,232.847,,755.966,39.757,0.438635,43.8635,46.4559
758.063,80.828,92.8601,,758.063,209.387,224.581,,758.063,38.6022,0.413481,41.3481,45.2511
760.161,81.845,86.4131,,760.161,198.162,212.747,,760.161,41.3021,0.406177,40.6177,43.9099
762.26,84.148,84.9569,,762.26,193.657,204.219,,762.26,43.4521,0.41601,41.601,42.9157
764.36,72.34,82.1978,,764.36,185.172,196.9,,764.36,39.0664,0.417459,41.7459,42.1784
766.461,68.367,75.9782,,766.461,185.015,190.823,,766.461,36.9521,0.398161,39.8161,41.3314
768.562,67.435,71.4773,,768.562,177.598,186.254,,768.562,37.9706,0.383762,38.3762,40.5773
770.665,61.031,67.8305,,770.665,168.205,179.624,,770.665,36.2837,0.377624,37.7624,40.0518
772.769,53.962,61.3009,,772.769,160.362,171.275,,772.769,33.6501,0.35791,35.791,39.1874
774.874,54.321,56.5295,,774.874,156.442,163.531,,774.874,34.7228,0.345682,34.5682,37.8761
776.98,55.562,55.1652,,776.98,157.256,159.793,,776.98,35.3322,0.345229,34.5229,36.6607
779.087,50.31,54.2038,,779.087,150.343,156.351,,779.087,33.4635,0.346681,34.6681,35.8635
781.195,43.507,49.9915,,781.195,140.336,150.312,,781.195,31.002,0.332586,33.2586,35.0313
783.304,43.235,46.6031,,783.304,142.542,145.898,,783.304,30.3314,0.319422,31.9422,34.1512
785.414,44.072,45.3373,,785.414,141.88,144.517,,785.414,31.0629,0.313715,31.3715,33.4394
787.525,44.305,45.0589,,787.525,138.395,142.375,,787.525,32.0134,0.316481,31.6481,32.857
789.637,39.085,43.2864,,789.637,135.958,140.064,,789.637,28.7478,0.309048,30.9048,32.1848
791.749,41.121,42.4207,,791.749,131.269,136.744,,791.749,31.3258,0.31022,31.022,31.5528
793.863,32.602,41.3123,,793.863,129.371,132.71,,793.863,25.2004,0.311298,31.1298,31.2827
795.978,31.967,37.041,,795.978,126.025,130.387,,795.978,25.3656,0.284086,28.4086,30.7909
798.094,31.843,34.649,,798.094,126.645,128.492,,798.094,25.1435,0.269658,26.9658,29.993
800.211,35.336,33.7943,,800.211,120.724,126.79,,800.211,29.2701,0.266537,26.6537,29.0483
802.329,31.251,33.6901,,802.329,125.017,126.006,,802.329,24.9974,0.267368,26.7368,28.3274
804.448,24.317,30.1446,,804.448,123.93,125.476,,804.448,19.6216,0.240242,24.0242,27.1181
806.567,29.155,28.5073,,806.567,122.311,123.382,,806.567,23.8368,0.231049,23.1049,25.8973
808.688,29.855,28.2187,,808.688,118.367,122.129,,808.688,25.2224,0.231057,23.1057,25.0631
810.81,30.974,29.7986,,810.81,125.329,121.378,,810.81,24.7142,0.245502,24.5502,24.6247
812.933,25.417,28.4077,,812.933,123.13,122.682,,812.933,20.6424,0.231556,23.1556,23.9826
815.057,25.683,27.0464,,815.057,120.642,120.862,,815.057,21.2886,0.22378,22.378,23.3431
817.181,27.083,26.0723,,817.181,129.685,123.09,,817.181,20.8837,0.211815,21.1815,22.9626
819.307,26.594,27.4462,,819.307,137.701,129.382,,819.307,19.3129,0.212134,21.2134,22.6044
821.434,24.585,27.1449,,821.434,141.814,134.579,,821.434,17.3361,0.201702,20.1702,21.9738
823.562,23.44,26.4074,,823.562,150.847,140.696,,823.562,15.5389,0.187691,18.7691,21.0301
825.69,22.661,24.9073,,825.69,162.962,148.914,,825.69,13.9057,0.16726,16.726,20.0177
827.82,25.265,24.352,,827.82,184.395,161.474,,827.82,13.7016,0.150811,15.0811,18.8213
829.951,24.3,24.5033,,829.951,200.202,177.52,,829.951,12.1377,0.138031,13.8031,17.4901
832.082,25.793,24.363,,832.082,211.484,192.708,,832.082,12.1962,0.126424,12.6424,15.9953
834.215,23.228,24.5536,,834.215,217.983,204.276,,834.215,10.6559,0.120198,12.0198,14.6154
836.349,19.954,22.9751,,836.349,222.188,211.359,,836.349,8.98068,0.108702,10.8702,13.3552
838.483,18.095,20.6538,,838.483,255.234,223.382,,838.483,7.08957,0.0924596,9.24596,12.1859
840.619,18.676,19.7236,,840.619,308.756,252.75,,840.619,6.04879,0.0780363,7.80363,10.9748
842.755,20.753,19.6425,,842.755,374.652,296.792,,842.755,5.53927,0.0661829,6.61829,9.79606
844.893,27.115,22.2317,,844.893,464.696,359.307,,844.893,5.835,0.0618738,6.18738,8.64219
847.032,26.534,25.2959,,847.032,557.035,437.958,,847.032,4.76343,0.0577587,5.77587,7.59334
849.171,25.718,25.5402,,849.171,661.057,525.484,,849.171,3.89044,0.0486033,4.86033,6.63451
851.312,23.345,24.6317,,851.312,756.098,619.683,,851.312,3.08756,0.0397488,3.97488,5.81099
853.453,20.936,23.2606,,853.453,857.691,715.358,,853.453,2.44097,0.032516,3.2516,5.08579
855.596,20.986,21.9994,,855.596,945.06,813.531,,855.596,2.2206,0.0270419,2.70419,4.41344
857.739,21.961,21.1989,,857.739,1009.281,898.409,,857.739,2.17591,0.023596,2.3596,3.73026
859.884,11.639,18.0748,,859.884,1085.862,977.02,,859.884,1.07187,0.0184999,1.84999,3.09703
862.029,15.88,14.5454,,862.029,1134.54,1048.31,,862.029,1.39969,0.013875,1.3875,2.5334
864.175,18.993,17.1923,,864.175,1180.224,1104.7,,864.175,1.60927,0.0155629,1.55629,2.12397
866.323,13.799,16.3084,,866.323,1219.693,1154.71,,866.323,1.13135,0.0141233,1.41233,1.84055
868.471,15.232,14.6981,,868.471,1270.779,1200.42,,868.471,1.19863,0.0122442,1.22442,1.60321
870.621,13.525,14.4513,,870.621,1328.341,1250.62,,870.621,1.01819,0.0115553,1.15553,1.40994
872.771,13.187,13.5917,,872.771,1407.639,1310.18,,872.771,0.936817,0.0103739,1.03739,1.30712
874.922,12.267,12.8705,,874.922,1501.233,1383.95,,874.922,0.817128,0.00929979,0.929979,1.21334
877.075,11.04,11.931,,877.075,1615.768,1472.94,,877.075,0.683266,0.00810015,0.810015,1.08561
879.228,5.948,9.71033,,879.228,1742.694,1578.64,,879.228,0.341311,0.00615107,0.615107,0.963526
881.382,7.988,8.78448,,881.382,1861.847,1694.73,,881.382,0.429036,0.0051834,0.51834,0.836694
883.537,5.177,8.34704,,883.537,1967.351,1809.46,,883.537,0.263146,0.00461301,0.461301,0.717972
885.694,7.175,6.58236,,885.694,2063.009,1916.59,,885.694,0.347793,0.00343441,0.343441,0.601476
887.851,10.149,7.69824,,887.851,2128.935,2010.83,,887.851,0.476717,0.00382838,0.382838,0.501905
890.009,7.883,7.83979,,890.009,2174.289,2085.22,,890.009,0.362555,0.00375969,0.375969,0.436032
892.168,12.306,8.62366,,892.168,2167.414,2133.41,,892.168,0.567773,0.00404219,0.404219,0.404073
894.328,12.615,10.6157,,894.328,2119.476,2141.3,,894.328,0.595194,0.00495761,0.495761,0.398818
896.489,11.712,11.6802,,896.489,2026.271,2108.09,,896.489,0.578008,0.00554066,0.554066,0.424215
898.651,10.614,11.5253,,898.651,1918.326,2037.89,,898.651,0.553295,0.00565548,0.565548,0.464239
900.815,17.53,13.58,,900.815,1785.282,1942.55,,900.815,0.981918,0.00699081,0.699081,0.511795
902.979,16.699,16.1109,,902.979,1649.08,1825.48,,902.979,1.01263,0.00882557,0.882557,0.597213
905.144,19.133,16.9796,,905.144,1520.884,1700.28,,905.144,1.25802,0.00998632,0.998632,0.692184
907.31,20.536,18.233,,907.31,1390.411,1573.02,,907.31,1.47697,0.0115911,1.15911,0.802777
909.477,11.593,17.0308,,909.477,1272.518,1446.96,,909.477,0.911028,0.01177,1.177,0.921887
911.644,14.4,14.7736,,911.644,1161.269,1326.88,,911.644,1.24002,0.011134,1.1134,1.02009
913.813,11.111,13.6502,,913.813,1069.772,1215.71,,913.813,1.03863,0.0112281,1.12281,1.08821
915.983,11.278,11.8761,,915.983,988.66,1118.11,,915.983,1.14074,0.0106215,1.06215,1.12026
918.154,12.445,12.1554,,918.154,909.367,1029.4,,918.154,1.36853,0.0118082,1.18082,1.13705
920.326,16.52,13.7149,,920.326,840.982,947.826,,920.326,1.96437,0.0144699,1.44699,1.16686
922.499,14.323,14.5406,,922.499,785.234,877.373,,922.499,1.82404,0.0165728,1.65728,1.25849
924.673,13.852,15.1127,,924.673,726.212,813.978,,924.673,1.90743,0.0185664,1.85664,1.38116
926.847,11.745,14.3627,,926.847,673.645,755.023,,926.847,1.7435,0.0190228,1.90228,1.53465
929.023,15.547,13.9385,,929.023,616.077,698.139,,929.023,2.52355,0.0199653,1.99653,1.69269
931.2,13.076,14.6252,,931.2,561.781,640.213,,931.2,2.3276,0.0228443,2.28443,1.87131
933.377,13.968,14.7618,,933.377,520.304,588.161,,933.377,2.68458,0.0250982,2.50982,2.03624
935.556,12.224,13.5875,,935.556,473.28,540.136,,935.556,2.58283,0.0251558,2.51558,2.18802
937.736,17.115,13.8329,,937.736,444.62,497.338,,937.736,3.84935,0.0278138,2.78138,2.33516
939.916,17.552,16.028,,939.916,412.505,461.97,,939.916,4.25498,0.0346949,3.46949,2.5973
942.098,14.898,16.0273,,942.098,382.026,427.176,,942.098,3.89973,0.0375193,3.75193,2.89828
944.28,12.971,14.4878,,944.28,357.638,396.484,,944.28,3.62685,0.0365407,3.65407,3.15346
946.464,16.679,14.1354,,946.464,338.612,371.382,,946.464,4.9257,0.0380615,3.80615,3.38265
948.648,17.751,16.181,,948.648,323.405,350.131,,948.648,5.48878,0.0462141,4.62141,3.71447
950.834,14.732,15.7409,,950.834,304.379,331.288,,950.834,4.84002,0.0475143,4.75143,4.03496
953.02,14.804,15.0364,,953.02,291.17,312.93,,953.02,5.08432,0.0480505,4.80505,4.24266
955.207,15.511,15.223,,955.207,282.78,299.394,,955.207,5.48518,0.0508461,5.08461,4.48173
957.396,13.764,15.3429,,957.396,274.843,289.202,,957.396,5.00795,0.0530527,5.30527,4.78217
959.585,7.744,12.5575,,959.585,262.27,278.682,,959.585,2.95268,0.0450602,4.50602,4.90595
961.775,14.359,12.2053,,961.775,258.151,268.507,,961.775,5.56225,0.045456,4.5456,4.82741
963.966,16.065,13.7339,,963.966,254.941,261.316,,963.966,6.30146,0.0525565,5.25565,4.88643
966.159,14.317,14.5299,,966.159,249.184,255.731,,966.159,5.74555,0.0568172,5.68172,5.01139
968.352,10.659,13.8986,,968.352,245.245,251.243,,968.352,4.34627,0.0553193,5.53193,5.0734
970.546,15.637,13.6559,,970.546,243.579,247.699,,970.546,6.41968,0.0551311,5.51311,5.14176
972.741,16.887,15.3535,,972.741,247.457,246.404,,972.741,6.82422,0.06231,6.231,5.45254
974.937,14.682,14.8125,,974.937,250.154,248.187,,974.937,5.86918,0.0596827,5.96827,5.69385
977.134,14.295,14.1513,,977.134,255.304,251.319,,977.134,5.59921,0.0563081,5.63081,5.74928
979.332,11.272,13.007,,979.332,259.999,254.524,,979.332,4.3354,0.0511032,5.11032,5.70065
981.531,16.066,12.8537,,981.531,265.33,259.407,,981.531,6.0551,0.0495502,4.95502,5.61259
983.731,16.042,15.0822,,983.731,271.115,263.446,,983.731,5.91705,0.0572495,5.72495,5.55801
985.932,9.562,13.4194,,985.932,279.717,269.85,,985.932,3.41846,0.0497293,4.97293,5.37943
988.134,10.628,10.8579,,988.134,288.592,276.398,,988.134,3.68271,0.0392835,3.92835,5.0658
990.336,15.512,12.1883,,990.336,304.103,287.506,,990.336,5.1009,0.0423933,4.23933,4.79578
992.54,13.395,14.1792,,992.54,312.703,299.062,,992.54,4.28362,0.0474124,4.74124,4.74697
994.745,12.368,12.9139,,994.745,332.031,310.388,,994.745,3.72495,0.0416058,4.16058,4.57523
996.951,13.796,12.3944,,996.951,345.812,325.534,,996.951,3.98945,0.0380742,3.80742,4.26864
999.157,12.405,11.8188,,999.157,349.411,336.816,,999.157,3.55026,0.0350898,3.50898,4.10661
1001.365,18.559,12.4274,,1001.365,361.555,346.187,,1001.365,5.13311,0.0358981,3.58981,4.01703
1003.573,17.894,15.1305,,1003.573,380.062,358.838,,1003.573,4.70818,0.0421654,4.21654,3.93726
1005.783,18.138,16.831,,1005.783,394.568,373.644,,1005.783,4.59693,0.0450455,4.50455,3.92319
1007.993,10.836,15.9796,,1007.993,413.801,388.537,,1007.993,2.61865,0.0411277,4.11277,3.98755
1010.205,8.715,11.8989,,1010.205,445.124,410.293,,1010.205,1.95788,0.0290009,2.90009,3.90156
1012.417,17.866,12.4509,,1012.417,471.173,434.633,,1012.417,3.79181,0.028647,2.8647,3.77072
1014.631,19.017,16.5257,,1014.631,504.404,462.228,,1014.631,3.77019,0.0357522,3.57522,3.66765
1016.845,20.531,18.1142,,1016.845,547.543,494.746,,1016.845,3.74966,0.0366131,3.66131,3.53193
1019.06,12.59,17.2317,,1019.06,593.226,534.401,,1019.06,2.12229,0.0322449,3.22449,3.33269
1021.277,12.376,14.4027,,1021.277,641.091,577.026,,1021.277,1.93046,0.0249602,2.49602,3.15897
1023.494,14.252,14.2226,,1023.494,672.682,618.95,,1023.494,2.11868,0.0229786,2.29786,3.07993
1025.712,15.4,14.5169,,1025.712,700.636,653.562,,1025.712,2.198,0.022212,2.2212,2.89765
1027.931,17.82,15.7245,,1027.931,723.589,684.128,,1027.931,2.46272,0.0229848,2.29848,2.63689
1030.151,17.422,16.6058,,1030.151,746.36,710.127,,1030.151,2.33426,0.0233843,2.33843,2.40833
1032.372,20.931,17.7242,,1032.372,762.675,733.866,,1032.372,2.74442,0.0241518,2.41518,2.31135
1034.594,14.077,17.9927,,1034.594,772.535,752.162,,1034.594,1.82218,0.0239213,2.39213,2.32308
1036.817,14.586,15.1006,,1036.817,784.121,766.641,,1036.817,1.86017,0.0196971,1.96971,2.29126
1039.041,21.184,16.527,,1039.041,784.706,776.29,,1039.041,2.69961,0.0212898,2.12898,2.26123
1041.266,15.51,17.9269,,1041.266,789.018,782.075,,1041.266,1.96573,0.0229222,2.29222,2.25721
1043.492,15.017,16.5728,,1043.492,792.237,785.442,,1043.492,1.89552,0.0211,2.11,2.22063
1045.718,18.522,17.601,,1045.718,793.002,788.197,,1045.718,2.33568,0.0223307,2.23307,2.1638
1047.946,14.209,16.8013,,1047.946,792.401,789.724,,1047.946,1.79316,0.0212748,2.12748,2.16336
1050.175,14.077,15.12,,1050.175,793.436,791.619,,1050.175,1.77418,0.0191001,1.91001,2.15774
1052.405,15.127,14.4647,,1052.405,792.47,791.89,,1052.405,1.90884,0.018266,1.8266,2.07997
1054.635,16.266,15.6351,,1054.635,785.776,789.36,,1054.635,2.07006,0.0198073,1.98073,2.02748
1056.867,20.859,16.8819,,1056.867,787.626,786.615,,1056.867,2.64834,0.0214614,2.14614,2.02016
1059.099,18.269,18.1966,,1059.099,787.384,785.817,,1059.099,2.32021,0.0231563,2.31563,2.02821
1061.333,12.134,16.1511,,1061.333,773.686,781.92,,1061.333,1.56834,0.0206557,2.06557,2.05256
1063.567,12.088,13.9581,,1063.567,766.806,775.044,,1063.567,1.57641,0.0180095,1.80095,2.04988
1065.802,15.132,14.803,,1065.802,755.742,768.407,,1065.802,2.00227,0.0192645,1.92645,2.04177
1068.039,12.448,14.9475,,1068.039,747.405,760.279,,1068.039,1.6655,0.0196605,1.96605,2.02784
1070.276,12.946,13.0125,,1070.276,743.794,753.164,,1070.276,1.74054,0.0172771,1.72771,1.94291
1072.514,12.987,12.5523,,1072.514,733.181,745.682,,1072.514,1.77132,0.0168333,1.68333,1.84051
1074.753,9.483,11.664,,1074.753,730.386,738.361,,1074.753,1.29835,0.0157971,1.57971,1.78408
1076.993,14.977,11.3719,,1076.993,723.134,732.281,,1076.993,2.07112,0.0155295,1.55295,1.73444
1079.234,14.743,14.274,,1079.234,719.154,726.24,,1079.234,2.05005,0.0196547,1.96547,1.71542
1081.476,9.509,13.7414,,1081.476,701.537,717.852,,1081.476,1.35545,0.0191425,1.91425,1.73559
1083.719,7.455,11.5159,,1083.719,693.645,707.543,,1083.719,1.07476,0.0162759,1.62759,1.73479
1085.963,9.491,10.4296,,1085.963,682.57,697.588,,1085.963,1.39048,0.0149509,1.49509,1.70308
1088.208,8.072,11.1182,,1088.208,679.494,689.411,,1088.208,1.18794,0.0161271,1.61271,1.71148
1090.454,6.106,7.82316,,1090.454,672.417,683.648,,1090.454,0.908067,0.0114433,1.14433,1.62536
1092.772,12.502,7.98572,,1092.772,662.701,676.076,,1092.772,1.88652,0.0118119,1.18119,1.46386
1094.985,8.625,9.23075,,1094.985,655.712,667.492,,1094.985,1.31536,0.013829,1.3829,1.3844
1097.197,6.656,8.20818,,1097.197,655.176,661.371,,1097.197,1.01591,0.0124109,1.24109,1.33918
1099.409,9.686,8.45616,,1099.409,648.729,656.29,,1099.409,1.49307,0.0128848,1.28848,1.28322
1101.622,9.896,8.93578,,1101.622,643.735,651.077,,1101.622,1.53728,0.0137246,1.37246,1.27597
1103.834,11.469,9.26611,,1103.834,630.558,644.368,,1103.834,1.81887,0.0143802,1.43802,1.33629
1106.047,11.132,11.0815,,1106.047,617.47,634.861,,1106.047,1.80284,0.017455,1.7455,1.40158
1108.259,9.521,11.3798,,1108.259,604.108,622.5,,1108.259,1.57604,0.0182809,1.82809,1.48946
1110.472,12,10.6663,,1110.472,594.744,610.059,,1110.472,2.01767,0.017484,1.7484,1.58614
1112.684,11.659,11.9096,,1112.684,588.197,601.125,,1112.684,1.98216,0.0198122,1.98122,1.6937
1114.897,6.772,10.3498,,1114.897,576.102,592.421,,1114.897,1.17549,0.0174703,1.74703,1.77991
1117.109,12.702,10.9059,,1117.109,572.643,583.804,,1117.109,2.21814,0.0186807,1.86807,1.8182
1119.321,11.812,11.7016,,1119.321,558.727,574.676,,1119.321,2.11409,0.0203621,2.03621,1.857
1121.534,13.375,12.6309,,1121.534,542.991,561.379,,1121.534,2.46321,0.0224998,2.24998,1.93441
1123.746,10.574,11.9786,,1123.746,534.618,550.187,,1123.746,1.97786,0.0217718,2.17718,2.00204
1125.959,6.953,10.525,,1125.959,521.969,539.044,,1125.959,1.33207,0.0195252,1.95252,2.02163
1128.171,8.786,9.04996,,1128.171,512.41,527.379,,1128.171,1.71464,0.0171603,1.71603,2.02703
1130.384,7.435,8.92033,,1130.384,505.941,517.299,,1130.384,1.46954,0.017244,1.7244,1.98628
1132.596,8.447,8.34594,,1132.596,492.015,507.577,,1132.596,1.71682,0.0164427,1.64427,1.90537
1134.809,13.185,9.06626,,1134.809,476.541,494.825,,1134.809,2.76681,0.0183222,1.83222,1.81343
1137.021,12.921,11.9908,,1137.021,467.339,482.482,,1137.021,2.7648,0.0248523,2.48523,1.85494
1139.233,5.656,10.2493,,1139.233,447.226,469.085,,1139.233,1.26468,0.0218495,2.18495,1.95541
1141.446,7.208,8.21378,,1141.446,436.474,453.839,,1141.446,1.65142,0.0180984,1.80984,1.9825
1143.658,12.032,8.80865,,1143.658,427.176,442.761,,1143.658,2.81664,0.0198948,1.98948,2.02156
1145.871,8.581,10.055,,1145.871,417.603,433.352,,1145.871,2.05482,0.0232028,2.32028,2.12235
1148.083,2.311,7.16569,,1148.083,406.664,423.006,,1148.083,0.568282,0.0169399,1.69399,2.07828
1150.296,9.131,6.22177,,1150.296,397.997,412.288,,1150.296,2.29424,0.0150908,1.50908,1.88691
1152.508,12.585,8.43777,,1152.508,378.873,399.405,,1152.508,3.32169,0.0211258,2.11258,1.87972
1154.721,14.948,10.4555,,1154.721,371.929,386.306,,1154.721,4.01905,0.0270653,2.70653,2.01157
1156.933,14.309,12.2854,,1156.933,362.529,377.74,,1156.933,3.94699,0.0325235,3.25235,2.20117
1159.145,16.396,13.024,,1159.145,345.945,365.105,,1159.145,4.73948,0.0356719,3.56719,2.4642
1161.358,21.391,16.2978,,1161.358,337.269,352.556,,1161.358,6.34242,0.0462276,4.62276,2.98828
1163.57,20.112,19.8248,,1163.57,331.501,343.465,,1163.57,6.06695,0.0577202,5.77202,3.69057
1165.783,12.923,18.7135,,1165.783,320.367,334.68,,1165.783,4.03381,0.0559144,5.59144,4.32025
1167.995,16.733,16.851,,1167.995,314.595,325.575,,1167.995,5.3189,0.0517577,5.17577,4.7391
1170.208,20.724,18.2035,,1170.208,309.912,318.454,,1170.208,6.68706,0.057162,5.7162,5.1414
1172.42,18.622,18.8156,,1172.42,302.319,311.822,,1172.42,6.15972,0.0603408,6.03408,5.53101
1174.633,18.974,19.0949,,1174.633,293.452,303.95,,1174.633,6.46579,0.0628226,6.28226,5.73386
1176.845,20.325,19.3908,,1176.845,287.311,296.555,,1176.845,7.07422,0.0653868,6.53868,5.86509
1179.057,23.402,21.301,,1179.057,269.168,287.512,,1179.057,8.6942,0.0740872,7.40872,6.2117
1181.27,25.933,24.0006,,1181.27,259.57,275.388,,1181.27,9.99075,0.0871517,8.71517,6.77346
1183.482,30.554,27.1488,,1183.482,258.334,266.759,,1183.482,11.8273,0.101773,10.1773,7.50335
1185.695,28.902,29.6064,,1185.695,253.916,260.707,,1185.695,11.3825,0.113562,11.3562,8.42661
1187.907,27.976,29.0166,,1187.907,251.678,256.108,,1187.907,11.1158,0.113298,11.3298,9.37158
1190.12,30.868,28.6336,,1190.12,240.621,251.416,,1190.12,12.8285,0.113889,11.3889,10.2146
1192.332,35.304,30.3332,,1192.332,233.382,244.964,,1192.332,15.1271,0.123827,12.3827,11.0054
1194.545,34.831,33.0918,,1194.545,223.506,236.57,,1194.545,15.5839,0.139882,13.9882,11.8151
1196.757,30.722,33.0595,,1196.757,220.356,227.657,,1196.757,13.942,0.145217,14.5217,12.5311
1198.969,36.339,32.9383,,1198.969,222.843,224.322,,1198.969,16.307,0.146835,14.6835,13.1276
1201.182,36.32,35.2397,,1201.182,222.693,224.009,,1201.182,16.3094,0.157314,15.7314,13.9051
1203.394,34.937,35.3416,,1203.394,227.543,224.733,,1203.394,15.354,0.157261,15.7261,14.645
1205.607,44.191,36.4309,,1205.607,221.393,224.578,,1205.607,19.9604,0.162219,16.2219,15.1597
1207.819,47.809,41.5328,,1207.819,215.152,219.749,,1207.819,22.221,0.189001,18.9001,15.8618
1210.032,39.608,42.8852,,1210.032,210.821,215.869,,1210.032,18.7875,0.198663,19.8663,16.8613
1212.244,32.954,39.296,,1212.244,206.855,212.013,,1212.244,15.931,0.185347,18.5347,17.5937
1214.456,38.3,36.7782,,1214.456,197.525,207.03,,1214.456,19.39,0.177646,17.7646,17.9815
1216.669,38.102,38.0399,,1216.669,185.106,198.968,,1216.669,20.5839,0.191186,19.1186,18.5584
1218.881,38.632,37.901,,1218.881,171.779,188.373,,1218.881,22.4894,0.201202,20.1202,19.0257
1221.094,38.799,38.6296,,1221.094,151.726,174.676,,1221.094,25.5718,0.22115,22.115,19.392
1223.306,35.241,37.6435,,1223.306,139.766,159.438,,1223.306,25.2143,0.236101,23.6101,20.1099
1225.519,33.865,36.6426,,1225.519,124.081,145.808,,1225.519,27.2927,0.251307,25.1307,21.366
1227.731,26.582,34.2247,,1227.731,117.488,132.501,,1227.731,22.6253,0.258298,25.8298,22.7563
1229.944,29.301,30.3042,,1229.944,112.353,124.089,,1229.944,26.0794,0.244214,24.4214,23.7401
1232.156,32.931,31.0148,,1232.156,97.22,114.347,,1232.156,33.8727,0.271234,27.1234,24.7271
1234.368,26.109,30.0367,,1234.368,97.727,105.743,,1234.368,26.7163,0.284055,28.4055,25.7969
1236.581,28.743,28.4123,,1236.581,95.509,101.209,,1236.581,30.0945,0.28073,28.073,26.5331
1238.793,26.016,27.731,,1238.793,88.568,95.5963,,1238.793,29.374,0.290084,29.0084,27.1113
1241.006,25.201,25.696,,1241.006,82.539,89.3296,,1241.006,30.5322,0.287654,28.7654,27.8345
1242.586,22.398,24.7609,,1242.586,79.058,86.0609,,1242.586,28.3311,0.287714,28.7714,