File: public_html/data/backup/plexiglas_WH17.csv
wavelength_nm,intensity,intensity_smoothed,,wavelength_nm2,intensity_i0,intensity_i0_smoothed,,wavelength_nm3,,transmission,transmission_perc,transmission_perc_smoothed
173.232,39.353,#N/A,,173.232,26.786,#N/A,,173.232,146.916,#N/A,#N/A,#N/A
175.084,53.232,42.6259,,175.084,38.604,29.6984,,175.084,137.892,1.4353,143.53,#N/A
176.935,55.412,49.4482,,176.935,36.058,34.7287,,176.935,153.675,1.42384,142.384,#N/A
178.787,56.775,52.7298,,178.787,36.057,35.7311,,178.787,157.459,1.47574,147.574,#N/A
180.639,54.864,54.7964,,180.639,33.693,36.2498,,180.639,162.835,1.51163,151.163,#N/A
182.491,52.318,54.08,,182.491,35.146,34.8517,,182.491,148.859,1.55172,155.172,#N/A
184.342,51.771,52.5134,,184.342,38.873,36.5629,,184.342,133.18,1.43625,143.625,148.45
186.194,52.588,51.9501,,186.194,37.236,37.7408,,186.194,141.229,1.3765,137.65,147.965
188.046,51.132,51.5025,,188.046,41.599,37.9195,,188.046,122.916,1.35821,135.821,146.467
189.897,53.495,51.8568,,189.897,38.507,39.5136,,189.897,138.923,1.31238,131.238,143.095
191.749,49.948,52.0261,,191.749,31.688,37.3555,,191.749,157.624,1.39273,139.273,139.725
193.601,51.492,51.6841,,193.601,33.505,35.5764,,193.601,153.685,1.45276,145.276,138.135
195.453,55.128,52.9731,,195.453,33.504,35.1224,,195.453,164.542,1.50824,150.824,139.491
197.304,54.399,54.4941,,197.304,32.14,34.8236,,197.304,169.256,1.56486,156.486,142.702
199.156,53.034,53.9117,,199.156,31.503,33.8949,,199.156,168.346,1.59055,159.055,147.489
201.008,50.488,53.2266,,201.008,34.684,33.8897,,201.008,145.566,1.57058,157.058,152.036
202.86,49.668,51.6876,,202.86,34.683,34.1697,,202.86,143.206,1.51267,151.267,153.968
204.711,55.576,52.1187,,204.711,35.227,35.1271,,204.711,157.765,1.48372,148.372,154.244
206.563,57.12,55.3386,,206.563,32.136,34.3423,,206.563,177.745,1.61138,161.138,154.88
208.415,51.846,54.9452,,208.415,36.68,34.8728,,208.415,141.347,1.57559,157.559,155.243
210.267,50.027,53.4502,,210.267,34.316,35.8565,,210.267,145.783,1.49067,149.067,153.553
212.118,53.844,52.6064,,212.118,32.679,35.2305,,212.118,164.766,1.49321,149.321,152.461
213.97,56.206,54.7809,,213.97,29.859,33.8215,,213.97,188.238,1.61971,161.971,154.041
215.822,51.75,54.5775,,215.822,29.859,31.0561,,215.822,173.315,1.75738,175.738,157.793
217.673,47.749,52.2889,,217.673,35.858,33.0981,,217.673,133.161,1.57982,157.982,158.341
219.525,48.02,49.9654,,219.525,29.402,33.5853,,219.525,163.322,1.48772,148.772,157.929
221.377,49.928,48.5648,,221.377,33.31,32.2544,,221.377,149.889,1.50568,150.568,158.564
223.229,45.836,48.8305,,223.229,37.764,34.2879,,223.229,121.375,1.42413,142.413,157.199
225.08,48.925,48.0568,,225.08,38.763,35.4599,,225.08,126.216,1.35524,135.524,151.111
226.932,50.288,49.4959,,226.932,38.217,37.2011,,226.932,131.585,1.3305,133.05,144.237
228.784,47.923,49.3556,,228.784,32.761,36.0345,,228.784,146.281,1.36968,136.968,140.996
230.636,50.74,49.2314,,230.636,29.397,34.1797,,230.636,172.603,1.44037,144.037,139.346
232.487,50.92,50.0502,,232.487,33.214,33.1807,,232.487,153.309,1.50841,150.841,139.689
234.339,46.737,50.1711,,234.339,34.304,34.4358,,234.339,136.244,1.45695,145.695,141.558
236.191,47.19,49.321,,236.191,27.485,31.4748,,236.191,171.694,1.567,156.7,144.894
238.043,61.461,51.658,,238.043,35.848,30.3274,,238.043,171.449,1.70334,170.334,151.063
239.894,69.551,58.7975,,239.894,44.574,35.5211,,239.894,156.035,1.65528,165.528,156.122
241.746,69.549,63.8011,,241.746,53.482,42.8589,,241.746,130.042,1.48863,148.863,157.177
243.598,67.366,65.926,,243.598,62.208,50.6793,,243.598,108.292,1.30085,130.085,154.455
245.449,69.183,67.0606,,245.449,62.662,56.7962,,245.449,110.407,1.18072,118.072,149.364
247.301,74.545,69.7206,,247.301,66.025,60.0306,,247.301,112.904,1.16142,116.142,140.73
249.153,82.089,74.399,,249.153,75.569,66.0606,,249.153,108.628,1.12622,112.622,130.398
251.005,82.27,78.9355,,251.005,79.023,71.749,,251.005,104.109,1.10016,110.016,121.223
252.856,82.086,80.4548,,252.856,77.567,74.9429,,252.856,105.826,1.07355,107.355,114.962
254.681,78.267,79.9931,,254.681,79.021,76.3829,,254.681,99.0458,1.04726,104.726,111.468
256.513,87.72,81.0063,,256.513,83.292,79.0528,,256.513,105.316,1.02471,102.471,108.739
258.347,84.536,83.6712,,258.347,84.019,82.1099,,258.347,100.615,1.01902,101.902,106.305
260.181,80.353,83.0455,,260.181,84.472,83.6374,,260.181,95.1238,0.992923,99.2923,104.091
262.017,82.443,81.6599,,262.017,81.108,83.7727,,262.017,101.646,0.974779,97.4779,101.964
263.853,85.168,82.8389,,263.853,85.197,83.7059,,263.853,99.966,0.989643,98.9643,100.48
265.691,82.076,83.2856,,265.691,83.469,84.7439,,265.691,98.3311,0.982792,98.2792,99.5899
267.53,77.711,81.9602,,267.53,78.923,83.0577,,267.53,98.4643,0.986787,98.6787,98.891
269.369,81.527,81.1838,,269.369,82.013,82.1681,,269.369,99.4074,0.988022,98.8022,98.5105
271.21,86.617,82.2139,,271.21,81.648,82.5729,,271.21,106.086,0.995653,99.5653,98.6967
273.052,87.888,84.3314,,273.052,78.374,81.0571,,273.052,112.139,1.04039,104.039,99.5155
274.895,83.523,84.6774,,274.895,79.009,79.5774,,274.895,105.713,1.06409,106.409,100.843
276.739,87.794,84.4765,,276.739,83.554,81.013,,276.739,105.075,1.04275,104.275,102.021
278.584,91.065,86.8952,,278.584,79.462,81.556,,278.584,114.602,1.06547,106.547,103.279
280.431,83.427,87.5184,,280.431,84.461,81.9941,,280.431,98.7758,1.06737,106.737,104.906
282.278,84.062,84.9291,,282.278,87.55,84.3235,,282.278,96.016,1.00718,100.718,105.128
284.126,88.878,86.5445,,284.126,87.549,85.4577,,284.126,101.518,1.01272,101.272,104.265
285.976,85.513,87.6842,,285.976,89.821,87.2231,,285.976,95.2038,1.00529,100.529,103.431
287.826,83.693,86.1604,,287.826,86.82,87.5194,,287.826,96.3983,0.984472,98.4472,102.328
289.678,87.601,85.4145,,289.678,88.001,87.5632,,289.678,99.5455,0.975461,97.5461,100.432
291.531,83.508,86.1872,,291.531,82.999,86.9141,,291.531,100.613,0.991637,99.1637,99.3471
293.385,86.87,84.8941,,293.385,86.544,86.0818,,293.385,100.377,0.986202,98.6202,99.0131
295.239,91.232,86.9591,,295.239,83.452,86.6223,,295.239,109.323,1.00389,100.389,98.6531
297.095,88.503,88.0712,,297.095,80.632,83.1922,,297.095,109.762,1.05865,105.865,99.5838
298.952,85.32,87.5515,,298.952,84.904,83.8708,,298.952,100.49,1.04389,104.389,100.995
300.81,83.682,85.7189,,300.81,81.721,82.882,,300.81,102.4,1.03423,103.423,102.095
302.669,87.316,85.5846,,302.669,90.811,84.7768,,302.669,96.1513,1.00953,100.953,102.666
304.53,92.224,88.4236,,304.53,88.537,86.7993,,304.53,104.164,1.01871,101.871,103.139
306.391,86.586,89.3071,,306.391,85.536,86.9114,,306.391,101.228,1.02757,102.757,103.162
308.253,87.584,87.5792,,308.253,82.171,84.5328,,308.253,106.587,1.03604,103.604,102.665
310.117,90.4,88.4281,,310.117,84.624,82.3974,,310.117,106.825,1.07319,107.319,103.064
311.981,85.217,87.8617,,311.981,90.623,85.0406,,311.981,94.0346,1.03317,103.317,103.461
313.847,89.124,87.447,,313.847,85.258,86.5371,,313.847,104.534,1.01051,101.051,103.464
315.713,94.85,90.7776,,315.713,86.621,85.0832,,315.713,109.5,1.06693,106.693,103.877
317.581,96.666,93.6252,,317.581,89.074,85.5077,,317.581,108.523,1.09493,109.493,104.984
319.45,92.664,94.1879,,319.45,86.709,86.1281,,319.45,106.868,1.09358,109.358,105.774
321.319,89.844,92.7266,,321.319,85.071,85.8514,,321.319,105.611,1.08008,108.008,106.081
323.19,90.661,91.2008,,323.19,89.525,86.5611,,323.19,101.269,1.0536,105.36,106.95
325.062,94.386,92.1408,,325.062,82.524,87.1706,,325.062,114.374,1.05702,105.702,107.259
326.935,93.839,92.2352,,326.935,88.25,86.2735,,326.935,106.333,1.0691,106.91,107.141
328.809,97.019,92.9233,,328.809,91.521,87.842,,328.809,106.007,1.05785,105.785,106.523
330.685,95.653,94.0361,,330.685,97.156,91.0015,,330.685,98.453,1.03335,103.335,105.826
332.561,96.288,94.4865,,332.561,89.337,92.2346,,332.561,107.781,1.02441,102.441,104.987
334.438,95.649,95.2331,,334.438,91.608,90.0201,,334.438,104.411,1.05791,105.791,105.102
336.316,98.647,96.7414,,336.316,91.879,91.5528,,336.316,107.366,1.05667,105.667,104.842
338.196,101.918,99.0316,,338.196,87.424,90.232,,338.196,116.579,1.09752,109.752,105.149
340.076,99.007,99.8713,,340.076,90.422,89.0709,,340.076,109.494,1.12126,112.126,106.384
341.958,99.642,98.2723,,341.958,88.694,88.8436,,341.958,112.344,1.10613,110.613,107.946
343.84,102.094,99.946,,343.84,88.42,88.2726,,343.84,115.465,1.13224,113.224,109.448
345.724,102.729,101.045,,345.724,94.418,90.3649,,345.724,108.802,1.11819,111.819,110.804
347.609,107.099,103.252,,347.609,94.789,93.2687,,347.609,112.987,1.10703,110.703,111.588
349.495,109.815,106.055,,349.495,91.155,93.6846,,349.495,120.471,1.13204,113.204,111.852
351.382,109.124,108.76,,351.382,90.863,92.7503,,351.382,120.097,1.17261,117.261,112.819
353.269,108.926,109.471,,353.269,93.89,92.5566,,353.269,116.014,1.18275,118.275,114.071
355.158,110.218,108.662,,355.158,91.527,92.7964,,355.158,120.421,1.17097,117.097,114.849
357.048,116.807,110.794,,357.048,92.684,93.1377,,357.048,126.027,1.18957,118.957,116.211
358.94,120.366,115.615,,358.94,95.218,94.2336,,358.94,126.411,1.22689,122.689,118.103
360.832,120.858,117.52,,360.832,96.431,95.4034,,360.832,125.331,1.23182,123.182,119.662
362.725,128.179,121.259,,362.725,93.62,95.0673,,362.725,136.914,1.27551,127.551,121.185
364.619,124.491,125.912,,364.619,105.359,96.5883,,364.619,118.159,1.3036,130.36,123.591
366.515,120.037,123.761,,366.515,104.282,101.133,,366.515,115.108,1.22374,122.374,124.859
368.411,131.74,124.16,,368.411,101.47,101.551,,368.411,129.831,1.22263,122.263,124.947
370.308,133.679,128.443,,370.308,97.975,100.897,,370.308,136.442,1.27301,127.301,125.426
372.207,137.485,131.249,,372.207,105.848,101.347,,372.207,129.889,1.29505,129.505,126.303
374.107,143.001,137.124,,374.107,105.608,103.386,,374.107,135.407,1.32633,132.633,126.61
376.007,142.159,140.42,,376.007,106.189,104.33,,376.007,133.874,1.34592,134.592,128.035
377.909,151.519,143.963,,377.909,105.226,104.795,,377.909,143.994,1.37376,137.376,130.839
379.812,159.702,150.458,,379.812,111.582,106.882,,379.812,143.125,1.4077,140.77,133.788
381.716,159.668,155.707,,381.716,114.291,109.895,,381.716,139.703,1.41688,141.688,136.175
383.62,165.788,159.185,,383.62,112.097,112.163,,383.62,147.897,1.41923,141.923,138.293
385.526,180.037,166.12,,385.526,116.28,112.79,,385.526,154.831,1.47283,147.283,140.545
387.433,510.033,180.3,,387.433,115.424,114.342,,387.433,441.878,1.57686,157.686,144.811
389.341,36068.384,8479.55,,389.341,119.767,115.64,,389.341,30115.5,73.327,7332.7,908.289
391.25,63755.564,32207.9,,391.25,130.241,120.838,,391.25,48952,266.538,26653.8,4826.22
393.161,63995.7,48746.9,,393.161,141.583,128.167,,393.161,45200.1,380.34,38034,11515.4
395.072,64000,56704.3,,395.072,162.278,140.311,,395.072,39438.5,404.132,40413.2,19084.2
396.984,64000,60510.5,,396.984,184.699,157.71,,396.984,34651,383.683,38368.3,26448.8
398.897,64000,62331,,398.897,227.497,182.636,,398.897,28132.2,341.285,34128.5,32820.8
400.812,64000,63201.7,,400.812,289.932,221.57,,400.812,22074.1,285.245,28524.5,35627.1
402.727,64000,63618.2,,402.727,375.612,277.644,,402.727,17038.9,229.136,22913.6,34119.8
404.644,64000,63817.4,,404.644,524.35,364.121,,404.644,12205.6,175.264,17526.4,30234.8
406.561,64000,63912.7,,406.561,752.631,501.419,,406.561,8503.5,127.463,12746.3,25382.9
408.48,64000,63958.2,,408.48,1090.276,712.968,,408.48,5870.07,89.707,8970.7,20322.6
410.4,64000,63980,,410.4,1576.714,1024.69,,410.4,4059.07,62.4386,6243.86,15629.3
412.32,64000,63990.4,,412.32,2292.428,1484.04,,412.32,2791.8,43.1191,4311.91,11602.7
414.242,64000,63995.4,,414.242,3303.056,2146.55,,414.242,1937.6,29.8132,2981.32,8335.76
416.165,64000,63997.8,,416.165,4719.128,3089.8,,416.165,1356.18,20.7126,2071.26,5857.57
418.089,64000,63999,,418.089,6623.23,4399.73,,418.089,966.296,14.5461,1454.61,4075.12
420.014,64000,63999.5,,420.014,9137.17,6168.31,,420.014,700.436,10.3755,1037.55,2830.57
421.939,64000,63999.8,,421.939,12355.714,8501.15,,421.939,517.979,7.52836,752.836,1973.18
423.866,63774.926,63973.4,,423.866,16253.351,11472.2,,423.866,392.38,5.5764,557.64,1388.35
425.795,62932.517,63672.7,,425.795,20920.267,15116.3,,425.795,300.821,4.2122,421.22,990.064
427.724,62413.408,63119,,427.724,26342.847,19491.6,,427.724,236.927,3.23826,323.826,718.089
429.654,62686.393,62787.1,,429.654,32472.644,24593,,429.654,193.044,2.55305,255.305,530.918
431.585,63473.426,62927,,431.585,39466.603,30450.9,,431.585,160.828,2.06651,206.651,400.919
433.517,63962.973,63362.5,,433.517,47212.176,37095.6,,433.517,135.48,1.70809,170.809,309.591
435.451,64000,63692,,435.451,57567.013,44916.7,,435.451,111.175,1.418,141.8,244.239
437.385,64000,63852.7,,437.385,64000,53518.3,,437.385,100,1.1931,119.31,196.638
439.32,64000,63929.5,,439.32,64000,58986.7,,439.32,100,1.0838,108.38,162.28
441.257,64000,63966.3,,441.257,64000,61602.1,,441.257,100,1.03838,103.838,138.016
443.194,63722.816,63944.1,,443.194,63787.125,62827.3,,443.194,99.8992,1.01777,101.777,121.329
445.133,62822.218,63622.1,,445.133,62883.234,63135.6,,445.133,99.903,1.00771,100.771,110.516
447.072,61789.93,62943.7,,447.072,61142.14,62615.5,,447.072,101.059,1.00524,100.524,104.692
449.013,60785.112,62081.3,,449.013,56984.331,60958,,449.013,106.67,1.01843,101.843,102.33
450.955,59938.65,61177.9,,450.955,48943.691,56974.3,,450.955,122.465,1.07378,107.378,102.199
452.897,59359.181,60369.7,,452.897,40056.044,50478,,452.897,148.19,1.19596,119.596,104.629
454.841,59073.654,59760.5,,454.841,32726.301,43097.4,,454.841,180.508,1.38664,138.664,110.593
456.786,58849.373,59355,,456.786,27131.96,36193.8,,456.786,216.901,1.63992,163.992,121.151
458.732,57979.805,58928.4,,458.732,22827.2,30323.6,,458.732,253.994,1.94332,194.332,137.143
460.679,54574.567,57723.2,,460.679,19324.818,25488.8,,460.679,282.407,2.26465,226.465,158.637
462.627,48257.273,54550.9,,462.627,16380.89,21505.9,,462.627,294.595,2.53655,253.655,184.052
464.576,41374.047,49501.4,,464.576,13857.231,18175.3,,464.576,298.574,2.72356,272.356,210.594
466.526,35207.314,43647.4,,466.526,11729.578,15364,,466.526,300.158,2.8409,284.09,235.577
468.477,30047.67,37884.6,,468.477,9995.534,13006.5,,468.477,300.611,2.91275,291.275,256.914
470.429,25947.625,32701.8,,470.429,8656.172,11077,,470.429,299.759,2.95222,295.222,273.197
472.382,22852.223,28350.9,,472.382,7635.598,9541.11,,472.382,299.285,2.97145,297.145,284.153
474.336,20461.412,24844.4,,474.336,6854.628,8338.67,,474.336,298.505,2.97942,297.942,290.855
476.292,18630.028,22067.6,,476.292,6260.377,7405.36,,476.292,297.586,2.97995,297.995,294.664
478.248,17233.827,19902.9,,478.248,5803.889,6686.65,,478.248,296.936,2.97651,297.651,296.614
480.205,16178.562,18223.6,,480.205,5461.718,6135.55,,480.205,296.217,2.97016,297.016,297.375
482.164,15526.122,16971.7,,482.164,5237.861,5720.76,,482.164,296.421,2.96668,296.668,297.485
484.123,15282.875,16135.6,,484.123,5160.507,5444.05,,484.123,296.151,2.9639,296.39,297.276
486.083,15480.436,15721.6,,486.083,5228.466,5308.26,,486.083,296.08,2.96172,296.172,296.944
488.045,16171.973,15749.1,,488.045,5480.019,5324.94,,488.045,295.108,2.95761,295.761,296.572
490.007,17392.741,16261.7,,490.007,5891.004,5504.92,,490.007,295.242,2.95403,295.403,296.214
491.971,19070.42,17261.5,,491.971,6468.471,5846.97,,491.971,294.821,2.95221,295.221,295.924
493.936,21172.001,18722.7,,493.936,7190.779,6348.99,,493.936,294.433,2.94893,294.893,295.631
495.901,23662.793,20618.3,,495.901,8029.417,6994.04,,495.901,294.701,2.94798,294.798,295.35
497.868,26420.389,22895.2,,497.868,9011.373,7778.88,,497.868,293.189,2.94325,294.325,295.061
499.836,29535.354,25510.8,,499.836,10104.749,8696.37,,499.836,292.292,2.9335,293.35,294.688
501.804,32839.597,28451.2,,501.804,11270.159,9726.87,,501.804,291.385,2.92502,292.502,294.194
503.774,36148.335,31586.2,,503.774,12464.423,10834.2,,503.774,290.012,2.91541,291.541,293.581
505.745,39420.929,34801.8,,505.745,13673.219,11989.4,,505.745,288.308,2.90273,290.273,292.789
507.717,42568.289,38022.9,,507.717,14872.93,13172.9,,507.717,286.213,2.88644,288.644,291.737
509.69,45491.625,41150.3,,509.69,16056.998,14363.8,,509.69,283.313,2.86487,286.487,290.456
511.664,48200.167,44114.5,,511.664,17217.394,15546.2,,511.664,279.95,2.83765,283.765,288.864
513.639,50669.906,46886.3,,513.639,18283.309,16693.9,,513.639,277.138,2.80859,280.859,286.891
515.615,52793.621,49416.6,,515.615,19258.438,17775.9,,515.615,274.132,2.77998,277.998,284.585
517.592,54603.77,51652.1,,517.592,20128.144,18776.6,,517.592,271.281,2.75088,275.088,282.002
519.57,56103.259,53589.3,,519.57,20880.749,19677.7,,519.57,268.684,2.72335,272.335,279.231
521.549,57324.641,55226,,521.549,21567.103,20481.6,,521.549,265.797,2.69638,269.638,276.403
523.529,58241.627,56571.3,,523.529,22195.328,21213.8,,523.529,262.405,2.66672,266.672,273.571
525.51,58854.045,57610.2,,525.51,22691.129,21857.8,,525.51,259.37,2.63568,263.568,270.696
527.493,59222.046,58366,,527.493,23058.875,22393.1,,527.493,256.83,2.60643,260.643,267.802
529.476,59288.153,58839.9,,529.476,23304.066,22803.7,,529.476,254.411,2.58028,258.028,264.938
531.46,59139.372,59041.9,,531.46,23470.938,23114.7,,531.46,251.969,2.55431,255.431,262.098
533.446,58891.487,59032.7,,533.446,23511.018,23315.5,,533.446,250.485,2.53191,253.191,259.335
535.432,58636.2,58890.6,,535.432,23522.14,23420.3,,535.432,249.281,2.51451,251.451,256.798
537.419,58513.243,58719.1,,537.419,23550.666,23479.6,,537.419,248.457,2.50086,250.086,254.56
539.408,58502.711,58607.6,,539.408,23514.322,23508.5,,539.408,248.796,2.49303,249.303,252.664
541.397,58518.32,58555.7,,541.397,23421.676,23487.5,,541.397,249.847,2.49306,249.306,251.214
543.388,58590.739,58553.2,,543.388,23308.611,23427,,543.388,251.37,2.49939,249.939,250.322
545.379,58704.96,58600.5,,545.379,23191.606,23337.7,,545.379,253.13,2.51098,251.098,250.005
547.372,58816.895,58685.3,,547.372,23067.082,23233,,547.372,254.982,2.52595,252.595,250.253
549.365,58820.06,58760.8,,549.365,22873.453,23102.2,,549.365,257.154,2.54351,254.351,251.037
551.36,58719.849,58768.8,,551.36,22657.524,22929.7,,551.36,259.163,2.563,256.3,252.268
553.356,58493.1,58689.6,,553.356,22458.012,22738.3,,553.356,260.455,2.58109,258.109,253.802
555.352,58208.789,58517.8,,555.352,22260.207,22544.8,,555.352,261.493,2.59562,259.562,255.461
557.35,57786.637,58254.9,,557.35,21989.908,22330.1,,557.35,262.787,2.60881,260.881,257.124
559.349,57253.522,57876.4,,559.349,21709.137,22080.9,,559.349,263.73,2.6211,262.11,258.721
561.348,56596.896,57385.4,,561.348,21446.354,21819.4,,561.348,263.9,2.63002,263.002,260.158
563.349,55952.107,56804.8,,563.349,21149.204,21549.7,,563.349,264.559,2.63599,263.599,261.351
565.351,55238.465,56189.4,,565.351,20809.542,21256.4,,565.351,265.448,2.6434,264.34,262.365
567.354,54371.236,55477.4,,567.354,20445.19,20936.2,,567.354,265.937,2.64984,264.984,263.252
569.358,53492.798,54681.5,,569.358,20090.264,20589.1,,569.358,266.262,2.65585,265.585,264.01
571.363,52535.85,53819.9,,571.363,19686.427,20228.3,,571.363,266.863,2.66063,266.063,264.651
573.368,51658.56,52919,,573.368,19315.428,19846,,573.368,267.447,2.66649,266.649,265.26
575.375,50755.387,52037,,575.375,18986.807,19488.9,,575.375,267.319,2.67008,267.008,265.833
577.383,49697.903,51104.3,,577.383,18574.161,19122.9,,577.383,267.565,2.67242,267.242,266.313
579.392,48625.882,50096.7,,579.392,18171.353,18727.8,,579.392,267.596,2.67499,267.499,266.724
581.402,47601.289,49067.3,,581.402,17776.569,18343.2,,581.402,267.775,2.67495,267.495,267.049
583.413,46524.49,48036.3,,583.413,17345.495,17939.5,,583.413,268.222,2.67768,267.768,267.309
585.425,45388.087,46960.1,,585.425,16927.19,17522,,585.425,268.137,2.68007,268.007,267.521
587.439,44221.378,45844.7,,587.439,16478.458,17098.9,,587.439,268.359,2.68115,268.115,267.704
589.453,43077.357,44708.1,,589.453,16021.565,16657.7,,589.453,268.871,2.68392,268.392,267.881
591.468,41912.767,43566.1,,591.468,15595.936,16217,,591.468,268.742,2.68644,268.644,268.085
593.484,40638.419,42378.3,,593.484,15135.761,15776.2,,593.484,268.493,2.68622,268.622,268.281
595.501,39414.155,41156.9,,595.501,14661.348,15320.5,,595.501,268.83,2.6864,268.64,268.416
597.519,38187.591,39939.2,,597.519,14208.392,14858.6,,597.519,268.768,2.68795,268.795,268.551
599.539,36896.218,38697.8,,599.539,13742.769,14406.5,,599.539,268.477,2.68613,268.613,268.639
601.559,35606.524,37429.5,,601.559,13250.632,13937.9,,601.559,268.716,2.68544,268.544,268.645
603.58,34302.37,36142.5,,603.58,12766.031,13456.8,,603.58,268.7,2.68581,268.581,268.635
605.602,33060.721,34865,,605.602,12339.477,12986.6,,605.602,267.926,2.6847,268.47,268.624
607.626,31795.238,33599.5,,607.626,11850.801,12526.1,,607.626,268.296,2.68237,268.237,268.544
609.65,30582.206,32343.4,,609.65,11365.108,12046.9,,609.65,269.089,2.68479,268.479,268.478
611.675,29361.974,31114.6,,611.675,10930.839,11580.6,,611.675,268.616,2.68678,268.678,268.497
613.702,28129.139,29886.6,,613.702,10480.543,11125.3,,613.702,268.394,2.68636,268.636,268.51
615.729,26958.575,28672.7,,615.729,10058.86,10678.5,,615.729,268.008,2.6851,268.51,268.506
617.757,25785.855,27479.5,,617.757,9626.625,10242.3,,617.757,267.86,2.68295,268.295,268.504
619.787,24585.291,26285.7,,619.787,9178.597,9804.92,,619.787,267.855,2.68086,268.086,268.472
621.817,23462.525,25105.7,,621.817,8739.57,9363.02,,621.817,268.463,2.68137,268.137,268.376
623.849,22461.011,23988.3,,623.849,8378.301,8944.18,,623.849,268.086,2.682,268.2,268.29
625.881,21491.497,22945.1,,625.881,8018.036,8559.97,,625.881,268.039,2.68051,268.051,268.195
627.915,20525.305,21939.2,,627.915,7612.591,8173.49,,627.915,269.623,2.68419,268.419,268.168
629.949,19567.728,20958.2,,629.949,7253.439,7787.88,,629.949,269.772,2.69113,269.113,268.308
631.985,18603.98,19988.7,,631.985,6920.723,7425.09,,631.985,268.816,2.69205,269.205,268.523
634.021,17634.989,19019.5,,634.021,6588.839,7077.77,,634.021,267.649,2.68722,268.722,268.655
636.059,16717.752,18061.8,,636.059,6255.693,6735.87,,636.059,267.241,2.68143,268.143,268.688
638.098,15827.552,17131.8,,638.098,5940.561,6402.08,,638.098,266.432,2.67597,267.597,268.617
640.137,14964.208,16232.6,,640.137,5647.062,6082.74,,640.137,264.991,2.66864,266.864,268.305
642.178,14129.557,15356.3,,642.178,5351.739,5777.91,,642.178,264.018,2.65775,265.775,267.713
644.219,13356.254,14519.1,,644.219,5077.458,5483.36,,644.219,263.05,2.64785,264.785,266.961
646.262,12633.693,13725,,646.262,4811.13,5203.37,,646.262,262.593,2.63771,263.771,266.121
648.306,11938.339,12976.4,,648.306,4540.322,4928.5,,648.306,262.94,2.63293,263.293,265.265
650.35,11258.379,12262.3,,650.35,4299.885,4664.42,,650.35,261.83,2.6289,262.89,264.454
652.396,10606.543,11571.1,,652.396,4069.196,4416.55,,652.396,260.655,2.61994,261.994,263.676
654.443,10004.486,10913.8,,654.443,3845.692,4178.94,,654.443,260.148,2.61161,261.161,262.927
656.49,9407.297,10287.2,,656.49,3614.831,3945.61,,656.49,260.242,2.60726,260.726,262.267
658.539,8839.037,9682.13,,658.539,3395.884,3715.16,,658.539,260.287,2.60611,260.611,261.72
660.589,8305.152,9105.69,,660.589,3212.113,3501.78,,660.589,258.557,2.6003,260.03,261.165
662.64,7810.639,8561.7,,662.64,3008.504,3299.99,,662.64,259.619,2.59446,259.446,260.596
664.691,7338.64,8050.66,,664.691,2825.846,3101.62,,664.691,259.697,2.59563,259.563,260.197
666.744,6881.535,7559.73,,666.744,2665.607,2917.05,,666.744,258.16,2.59157,259.157,259.89
668.798,6462.395,7098.01,,668.798,2508.898,2745.46,,668.798,257.579,2.58537,258.537,259.517
670.853,6059.072,6664,,670.853,2354.692,2582.3,,670.853,257.319,2.58065,258.065,259.096
672.909,5675.232,6249.11,,672.909,2213.672,2427.68,,672.909,256.372,2.57411,257.411,258.708
674.965,5323.933,5859.81,,674.965,2086.494,2283.43,,674.965,255.162,2.56623,256.623,258.208
677.023,4991.992,5494.73,,677.023,1964.424,2148.24,,677.023,254.12,2.55778,255.778,257.555
679.082,4672.497,5147.52,,679.082,1847.565,2022.54,,679.082,252.9,2.54507,254.507,256.798
681.142,4354.636,4817.93,,681.142,1737.729,1903.79,,681.142,250.594,2.53071,253.071,255.892
683.203,4068.533,4502.02,,683.203,1629.665,1789.43,,683.203,249.655,2.51589,251.589,254.789
685.265,3815.626,4211.7,,685.265,1520.884,1678.67,,685.265,250.882,2.50896,250.896,253.642
687.327,3569.065,3940.22,,687.327,1427.089,1572.32,,687.327,250.094,2.50598,250.598,252.592
689.391,3327.985,3681.79,,689.391,1342.555,1474.85,,689.391,247.884,2.49639,249.639,251.598
691.456,3138.582,3449.13,,691.456,1266.909,1386.44,,691.456,247.735,2.48776,248.776,250.657
693.522,2916.912,3230.07,,693.522,1181.382,1302.62,,693.522,246.907,2.47967,247.967,249.863
695.589,2722.169,3014.63,,695.589,1099.399,1217.94,,695.589,247.605,2.47519,247.519,249.192
697.657,2544.94,2816,,697.657,1034.453,1139.18,,697.657,246.018,2.47197,247.197,248.55
699.726,2378.533,2631.19,,699.726,971.408,1066.88,,699.726,244.854,2.46624,246.624,247.901
701.796,2215.072,2456.54,,701.796,917.503,1001.66,,701.796,241.424,2.45246,245.246,247.246
703.867,2069.156,2291.79,,703.867,861.064,943.417,,703.867,240.302,2.42924,242.924,246.328
705.939,1931.673,2139.9,,705.939,804.537,885.41,,705.939,240.097,2.41685,241.685,245.244
708.012,1805.124,1998.17,,708.012,759.323,831.585,,708.012,237.728,2.40285,240.285,243.976
710.085,1684.852,1866.15,,710.085,719.139,783.449,,710.085,234.287,2.38196,238.196,242.433
712.16,1567.636,1741.43,,712.16,670.14,738.668,,712.16,233.927,2.35752,235.752,240.59
714.236,1456.934,1622.41,,714.236,626.682,690.974,,714.236,232.484,2.34801,234.801,238.856
716.313,1350.15,1508.95,,716.313,586.621,647.561,,716.313,230.157,2.33021,233.021,237.202
718.391,1264.474,1403.58,,718.391,553.42,606.872,,718.391,228.484,2.31281,231.281,235.409
720.47,1171.826,1308.12,,720.47,515.553,569.744,,720.47,227.295,2.29599,229.599,233.634
722.55,1088.939,1214.46,,722.55,489.289,534.375,,722.55,222.555,2.27267,227.267,231.919
724.631,1021.959,1131.89,,724.631,456.046,503.092,,724.631,224.091,2.24987,224.987,230.057
726.713,950.07,1056.97,,726.713,427.384,471.345,,726.713,222.299,2.24245,224.245,228.22
728.796,884.71,984.197,,728.796,406.484,444.036,,728.796,217.649,2.21648,221.648,226.382
730.88,828.098,917.889,,730.88,378.822,417.772,,730.88,218.598,2.19711,219.711,224.415
732.965,776.99,856.311,,732.965,361.79,392.676,,732.965,214.763,2.18071,218.071,222.52
735.051,730.191,803.455,,735.051,344.187,371.911,,735.051,212.15,2.16034,216.034,220.729
737.138,682.671,753.31,,737.138,327.822,352.608,,737.138,208.244,2.1364,213.64,218.792
739.226,640.49,705.607,,739.226,309.223,335.6,,739.226,207.129,2.10253,210.253,216.504
741.315,608.336,662.785,,741.315,291.064,317.051,,741.315,209.004,2.09047,209.047,214.335
743.405,570.021,624.095,,743.405,276.402,299.691,,743.405,206.229,2.08246,208.246,212.365
745.496,532.044,585.476,,745.496,267.689,285.57,,745.496,198.755,2.0502,205.02,210.274
747.588,502.379,550.888,,747.588,249.668,272.766,,747.588,201.219,2.01964,201.964,207.927
749.681,484.024,521.137,,749.681,240.994,258.037,,749.681,200.845,2.01962,201.962,205.984
751.775,457.303,495.702,,751.775,237.1,248.653,,751.775,192.873,1.99355,199.355,204.261
753.87,428.191,468.212,,753.87,228.541,240.406,,753.87,187.359,1.94759,194.759,201.796
755.966,403.667,442.142,,755.966,222.743,232.847,,755.966,181.225,1.89885,189.885,198.785
758.063,383.017,417.858,,758.063,209.387,224.581,,758.063,182.923,1.86061,186.061,195.629
760.161,362.595,394.22,,760.161,198.162,212.747,,760.161,182.979,1.853,185.3,192.515
762.26,347.553,374.322,,762.26,193.657,204.219,,762.26,179.468,1.83295,183.295,189.224
764.36,321.895,355.601,,764.36,185.172,196.9,,764.36,173.836,1.80599,180.599,186.218
766.461,303.358,333.112,,766.461,185.015,190.823,,766.461,163.964,1.74566,174.566,183.134
768.562,289.185,314.404,,768.562,177.598,186.254,,768.562,162.831,1.68804,168.804,179.82
770.665,273.887,296.904,,770.665,168.205,179.624,,770.665,162.829,1.65291,165.291,176.127
772.769,260.723,281.605,,772.769,160.362,171.275,,772.769,162.584,1.64417,164.417,172.364
774.874,255.981,268.53,,774.874,156.442,163.531,,774.874,163.627,1.64208,164.208,168.944
776.98,246.708,259.366,,776.98,157.256,159.793,,776.98,156.883,1.62314,162.314,166.127
779.087,233.755,248.786,,779.087,150.343,156.351,,779.087,155.481,1.5912,159.12,163.861
781.195,222.536,237.503,,781.195,140.336,150.312,,781.195,158.574,1.58007,158.007,162.211
783.304,209.699,226.76,,783.304,142.542,145.898,,783.304,147.114,1.55424,155.424,160.62
785.414,199.214,216.122,,785.414,141.88,144.517,,785.414,140.41,1.49548,149.548,158.149
787.525,189.772,204.556,,787.525,138.395,142.375,,787.525,137.123,1.43674,143.674,154.588
789.637,182.214,194.88,,789.637,135.958,140.064,,789.637,134.022,1.39137,139.137,150.714
791.749,177.651,186.941,,791.749,131.269,136.744,,791.749,135.334,1.36709,136.709,146.691
793.863,171.178,181.385,,793.863,129.371,132.71,,793.863,132.316,1.36678,136.678,142.809
795.978,167.388,175.669,,795.978,126.025,130.387,,795.978,132.821,1.34729,134.729,139.465
798.094,163.589,170.65,,798.094,126.645,128.492,,798.094,129.171,1.3281,132.81,136.924
800.211,158.035,166.169,,800.211,120.724,126.79,,800.211,130.906,1.31058,131.058,134.982
802.329,154.379,161.696,,802.329,125.017,126.006,,802.329,123.486,1.28323,128.323,133.358
804.448,153.211,158.121,,804.448,123.93,125.476,,804.448,123.627,1.26017,126.017,131.433
806.567,161.039,157.082,,806.567,122.311,123.382,,806.567,131.664,1.27313,127.313,129.758
808.688,160.437,158.969,,808.688,118.367,122.129,,808.688,135.542,1.30165,130.165,128.951
810.81,159.091,159.068,,810.81,125.329,121.378,,810.81,126.939,1.31052,131.052,128.903
812.933,161.867,160.288,,812.933,123.13,122.682,,812.933,131.46,1.30654,130.654,128.955
815.057,169.569,163.41,,815.057,120.642,120.862,,815.057,140.556,1.35204,135.204,130.133
817.181,188.948,170.856,,817.181,129.685,123.09,,817.181,145.698,1.38806,138.806,132.245
819.307,203.48,184.209,,819.307,137.701,129.382,,819.307,147.769,1.42376,142.376,134.651
821.434,217.204,198.433,,821.434,141.814,134.579,,821.434,153.161,1.47447,147.447,137.406
823.562,239.573,212.767,,823.562,150.847,140.696,,823.562,158.819,1.51224,151.224,141.144
825.69,271.025,234.667,,825.69,162.962,148.914,,825.69,166.312,1.57586,157.586,145.573
827.82,309.865,263.393,,827.82,184.395,161.474,,827.82,168.044,1.63118,163.118,150.298
829.951,354.701,299.045,,829.951,200.202,177.52,,829.951,177.172,1.68457,168.457,155.27
832.082,393.428,337.43,,832.082,211.484,192.708,,832.082,186.032,1.75099,175.099,160.678
834.215,420.691,373.322,,834.215,217.983,204.276,,834.215,192.993,1.82754,182.754,166.622
836.349,455.52,404.532,,836.349,222.188,211.359,,836.349,205.016,1.91396,191.396,173.25
838.483,532.582,448.019,,838.483,255.234,223.382,,838.483,208.664,2.00562,200.562,180.48
840.619,648.394,518.95,,840.619,308.756,252.75,,840.619,210.002,2.05322,205.322,187.877
842.755,828.041,629.785,,842.755,374.652,296.792,,842.755,221.016,2.12198,212.198,195.2
844.893,1035.611,785.534,,844.893,464.696,359.307,,844.893,222.858,2.18625,218.625,202.511
847.032,1264.24,973.427,,847.032,557.035,437.958,,847.032,226.959,2.22265,222.265,209.144
849.171,1521.84,1190.62,,849.171,661.057,525.484,,849.171,230.213,2.26577,226.577,214.764
851.312,1779.033,1431.54,,851.312,756.098,619.683,,851.312,235.291,2.31011,231.011,219.823
853.453,2013.458,1672.84,,853.453,857.691,715.358,,853.453,234.753,2.33847,233.847,224.616
855.596,2241.164,1909.1,,855.596,945.06,813.531,,855.596,237.145,2.34669,234.669,228.223
857.739,2458.652,2139.57,,857.739,1009.281,898.409,,857.739,243.604,2.38151,238.151,231.4
859.884,2631.07,2353.75,,859.884,1085.862,977.02,,859.884,242.302,2.40911,240.911,234.474
862.029,2747.626,2529.81,,862.029,1134.54,1048.31,,862.029,242.18,2.41321,241.321,236.908
864.175,2848.908,2667.7,,864.175,1180.224,1104.7,,864.175,241.387,2.41486,241.486,238.625
866.323,2958.529,2788.31,,866.323,1219.693,1154.71,,866.323,242.563,2.41472,241.472,240.02
868.471,3076.748,2905.71,,868.471,1270.779,1200.42,,868.471,242.115,2.42058,242.058,241.151
870.621,3229.538,3032.68,,870.621,1328.341,1250.62,,870.621,243.126,2.42495,242.495,241.658
872.771,3417.188,3182.25,,872.771,1407.639,1310.18,,872.771,242.76,2.42886,242.886,241.971
874.922,3655.444,3363.21,,874.922,1501.233,1383.95,,874.922,243.496,2.43015,243.015,242.248
877.075,3934.375,3586.27,,877.075,1615.768,1472.94,,877.075,243.499,2.43477,243.477,242.605
879.228,4232.174,3843.1,,879.228,1742.694,1578.64,,879.228,242.852,2.43444,243.444,242.931
881.382,4550.947,4127.17,,881.382,1861.847,1694.73,,881.382,244.432,2.43529,243.529,243.171
883.537,4839.638,4424.02,,883.537,1967.351,1809.46,,883.537,245.998,2.44495,244.495,243.449
885.694,5075.669,4704.3,,885.694,2063.009,1916.59,,885.694,246.032,2.45452,245.452,243.887
887.851,5248.234,4944.57,,887.851,2128.935,2010.83,,887.851,246.519,2.45896,245.896,244.364
890.009,5356.319,5134.95,,890.009,2174.289,2085.22,,890.009,246.348,2.46254,246.254,244.868
892.168,5332.154,5248.06,,892.168,2167.414,2133.41,,892.168,246.015,2.45994,245.994,245.373
894.328,5206.877,5264.35,,894.328,2119.476,2141.3,,894.328,245.668,2.45849,245.849,245.755
896.489,4974.688,5178.49,,896.489,2026.271,2108.09,,896.489,245.51,2.45649,245.649,245.896
898.651,4699.572,5002.6,,898.651,1918.326,2037.89,,898.651,244.983,2.45479,245.479,245.879
900.815,4382.089,4763.14,,900.815,1785.282,1942.55,,900.815,245.456,2.452,245.2,245.734
902.979,4032.842,4473.83,,902.979,1649.08,1825.48,,902.979,244.551,2.45077,245.077,245.544
905.144,3700.238,4158.45,,905.144,1520.884,1700.28,,905.144,243.295,2.44574,244.574,245.329
907.31,3393.391,3840.23,,907.31,1390.411,1573.02,,907.31,244.057,2.4413,244.13,245.034
909.477,3092.327,3531.25,,909.477,1272.518,1446.96,,909.477,243.009,2.44045,244.045,244.755
911.644,2811.616,3230.36,,911.644,1161.269,1326.88,,911.644,242.116,2.43455,243.455,244.425
913.813,2576.496,2951.25,,913.813,1069.772,1215.71,,913.813,240.845,2.42759,242.759,244.007
915.983,2358.738,2700.71,,915.983,988.66,1118.11,,915.983,238.579,2.41541,241.541,243.431
918.154,2174.799,2474.49,,918.154,909.367,1029.4,,918.154,239.155,2.40381,240.381,242.737
920.326,2008.677,2275.96,,920.326,840.982,947.826,,920.326,238.849,2.40125,240.125,241.983
922.499,1858.009,2098.43,,922.499,785.234,877.373,,922.499,236.619,2.39172,239.172,241.162
924.673,1701.796,1934.47,,924.673,726.212,813.978,,924.673,234.339,2.37656,237.656,240.187
926.847,1560.4,1775.9,,926.847,673.645,755.023,,926.847,231.635,2.35211,235.211,238.987
929.023,1436.185,1631.66,,929.023,616.077,698.139,,929.023,233.118,2.33716,233.716,237.677
931.2,1303.697,1496.67,,931.2,561.781,640.213,,931.2,232.065,2.33778,233.778,236.463
933.377,1186.209,1364.98,,933.377,520.304,588.161,,933.377,227.984,2.32076,232.076,235.121
935.556,1090.175,1247.37,,935.556,473.28,540.136,,935.556,230.345,2.30937,230.937,233.711
937.736,993.231,1139.73,,937.736,444.62,497.338,,937.736,223.389,2.29167,229.167,232.426
939.916,915.741,1042.66,,939.916,412.505,461.97,,939.916,221.995,2.25699,225.699,230.939
942.098,841.887,957.439,,942.098,382.026,427.176,,942.098,220.374,2.24132,224.132,229.18
944.28,780.396,880.646,,944.28,357.638,396.484,,944.28,218.208,2.22114,222.114,227.19
946.464,729.631,815.573,,946.464,338.612,371.382,,946.464,215.477,2.19605,219.605,225.102
948.648,681.503,758.174,,948.648,323.405,350.131,,948.648,210.727,2.1654,216.54,222.635
950.834,655.283,710.539,,950.834,304.379,331.288,,950.834,215.285,2.14478,214.478,220.245
953.02,624.88,674.319,,953.02,291.17,312.93,,953.02,214.61,2.15486,215.486,218.406
955.207,590.568,639.391,,955.207,282.78,299.394,,955.207,208.844,2.13562,213.562,216.711
957.396,571.073,608.463,,957.396,274.843,289.202,,957.396,207.782,2.10394,210.394,214.883
959.585,548.214,582.035,,959.585,262.27,278.682,,959.585,209.027,2.08853,208.853,213.168
961.775,535.264,560.375,,961.775,258.151,268.507,,961.775,207.345,2.087,208.7,211.93
963.966,518.222,542.496,,963.966,254.941,261.316,,963.966,203.271,2.07601,207.601,210.576
966.159,510.361,527.548,,966.159,249.184,255.731,,966.159,204.813,2.0629,206.29,208.974
968.352,501.954,515.784,,968.352,245.245,251.243,,968.352,204.675,2.05293,205.293,207.713
970.546,501.273,506.357,,970.546,243.579,247.699,,970.546,205.795,2.04424,204.424,206.748
972.741,505.683,504.669,,972.741,247.457,246.404,,972.741,204.352,2.04813,204.813,205.959
974.937,505.092,505.101,,974.937,250.154,248.187,,974.937,201.912,2.03516,203.516,205.182
977.134,511.5,506.67,,977.134,255.304,251.319,,977.134,200.349,2.01604,201.604,204.305
979.332,531.362,514.109,,979.332,259.999,254.524,,979.332,204.371,2.01988,201.988,203.526
981.531,546.678,526.624,,981.531,265.33,259.407,,981.531,206.037,2.03011,203.011,203.149
983.731,576.447,543.889,,983.731,271.115,263.446,,983.731,212.621,2.06452,206.452,203.281
985.932,598.943,567.504,,985.932,279.717,269.85,,985.932,214.125,2.10304,210.304,204.203
988.134,618.347,588.508,,988.134,288.592,276.398,,988.134,214.263,2.1292,212.92,206.044
990.336,649.569,611.393,,990.336,304.103,287.506,,990.336,213.602,2.12654,212.654,208.192
992.54,678.88,638.4,,992.54,312.703,299.062,,992.54,217.101,2.13467,213.467,210.218
994.745,710.191,667.505,,994.745,332.031,310.388,,994.745,213.893,2.15055,215.055,212.195
996.951,736.955,697.072,,996.951,345.812,325.534,,996.951,213.109,2.14132,214.132,213.374
999.157,758.446,722.949,,999.157,349.411,336.816,,999.157,217.064,2.14642,214.642,213.862
1001.365,793.935,750.683,,1001.365,361.555,346.187,,1001.365,219.589,2.16843,216.843,214.468
1003.573,841.424,785.294,,1003.573,380.062,358.838,,1003.573,221.391,2.18844,218.844,215.48
1005.783,883.912,825.355,,1005.783,394.568,373.644,,1005.783,224.02,2.20893,220.893,216.583
1007.993,932.762,865.963,,1007.993,413.801,388.537,,1007.993,225.413,2.22878,222.878,218.035
1010.205,1002.703,917.164,,1010.205,445.124,410.293,,1010.205,225.264,2.23539,223.539,219.82
1012.417,1087.824,983.733,,1012.417,471.173,434.633,,1012.417,230.876,2.26336,226.336,221.684
1014.631,1176.853,1060.81,,1014.631,504.404,462.228,,1014.631,233.316,2.295,229.5,223.768
1016.845,1278.699,1145.63,,1016.845,547.543,494.746,,1016.845,233.534,2.3156,231.56,225.928
1019.06,1392.999,1242.89,,1019.06,593.226,534.401,,1019.06,234.818,2.32576,232.576,227.903
1021.277,1498.388,1349.19,,1021.277,641.091,577.026,,1021.277,233.725,2.33817,233.817,229.851
1023.494,1591.413,1451.97,,1023.494,672.682,618.95,,1023.494,236.577,2.34586,234.586,231.697
1025.712,1666.8,1544.35,,1025.712,700.636,653.562,,1025.712,237.898,2.36298,236.298,233.225
1027.931,1734.731,1627.01,,1027.931,723.589,684.128,,1027.931,239.74,2.37823,237.823,234.529
1030.151,1778.57,1696.24,,1030.151,746.36,710.127,,1030.151,238.299,2.38864,238.864,235.784
1032.372,1820.954,1751.24,,1032.372,762.675,733.866,,1032.372,238.759,2.38632,238.632,236.807
1034.594,1843.881,1794.66,,1034.594,772.535,752.162,,1034.594,238.679,2.38601,238.601,237.67
1036.817,1864.626,1825.47,,1036.817,784.121,766.641,,1036.817,237.798,2.38113,238.113,238.223
1039.041,1887.824,1853.34,,1039.041,784.706,776.29,,1039.041,240.577,2.38744,238.744,238.517
1041.266,1895.202,1873.5,,1041.266,789.018,782.075,,1041.266,240.198,2.39555,239.555,238.708
1043.492,1910.306,1887.53,,1043.492,792.237,785.442,,1043.492,241.128,2.40314,240.314,238.953
1045.718,1913.045,1900.73,,1045.718,793.002,788.197,,1045.718,241.241,2.41149,241.149,239.38
1047.946,1912.146,1906.26,,1047.946,792.401,789.724,,1047.946,241.31,2.41383,241.383,239.923
1050.175,1915.155,1910.64,,1050.175,793.436,791.619,,1050.175,241.375,2.41359,241.359,240.506
1052.405,1917.071,1913.54,,1052.405,792.47,791.89,,1052.405,241.911,2.41643,241.643,240.95
1054.635,1907.441,1914.12,,1054.635,785.776,789.36,,1054.635,242.746,2.42489,242.489,241.397
1056.867,1892.445,1907.21,,1056.867,787.626,786.615,,1056.867,240.272,2.42458,242.458,241.747
1059.099,1879.63,1896.75,,1059.099,787.384,785.817,,1059.099,238.718,2.41373,241.373,241.813
1061.333,1873.358,1887.48,,1061.333,773.686,781.92,,1061.333,242.134,2.4139,241.39,241.766
1063.567,1867.448,1879.84,,1063.567,766.806,775.044,,1063.567,243.536,2.42547,242.547,241.889
1065.802,1847.628,1869.22,,1065.802,755.742,768.407,,1065.802,244.479,2.4326,243.26,242.09
1068.039,1831.897,1853.98,,1068.039,747.405,760.279,,1068.039,245.101,2.43855,243.855,242.304
1070.276,1810.346,1837.15,,1070.276,743.794,753.164,,1070.276,243.393,2.43924,243.924,242.705
1072.514,1791.884,1817.26,,1072.514,733.181,745.682,,1072.514,244.399,2.43705,243.705,243.216
1074.753,1787.875,1803.95,,1074.753,730.386,738.361,,1074.753,244.785,2.44319,244.319,243.678
1076.993,1766.591,1788.78,,1076.993,723.134,732.281,,1076.993,244.296,2.44274,244.274,243.975
1079.234,1748.032,1772.1,,1079.234,719.154,726.24,,1079.234,243.068,2.4401,244.01,244.086
1081.476,1720.836,1752.72,,1081.476,701.537,717.852,,1081.476,245.295,2.44162,244.162,244.092
1083.719,1709.819,1733,,1083.719,693.645,707.543,,1083.719,246.498,2.44933,244.933,244.263
1085.963,1694.346,1716.59,,1085.963,682.57,697.588,,1085.963,248.23,2.46075,246.075,244.577
1088.208,1678.961,1700.72,,1088.208,679.494,689.411,,1088.208,247.09,2.46692,246.692,244.997
1090.454,1675.848,1688.54,,1090.454,672.417,683.648,,1090.454,249.227,2.4699,246.99,245.502
1092.772,1654.641,1676.98,,1092.772,662.701,676.076,,1092.772,249.681,2.48045,248.045,246.226
1094.985,1639.341,1659.9,,1094.985,655.712,667.492,,1094.985,250.009,2.48677,248.677,246.984
1097.197,1626.767,1646.52,,1097.197,655.176,661.371,,1097.197,248.295,2.48956,248.956,247.647
1099.409,1604.372,1630.78,,1099.409,648.729,656.29,,1099.409,247.31,2.48485,248.485,248.05
1101.622,1583.338,1612.12,,1101.622,643.735,651.077,,1101.622,245.961,2.47608,247.608,248.253
1103.834,1559.303,1591.21,,1103.834,630.558,644.368,,1103.834,247.289,2.46941,246.941,248.166
1106.047,1543.446,1570.94,,1106.047,617.47,634.861,,1106.047,249.963,2.47446,247.446,247.958
1108.259,1523.861,1552.43,,1108.259,604.108,622.5,,1108.259,252.25,2.49386,249.386,247.953
1110.472,1499.545,1531.19,,1110.472,594.744,610.059,,1110.472,252.133,2.50991,250.991,248.304
1112.684,1472.137,1507.74,,1112.684,588.197,601.125,,1112.684,250.28,2.50819,250.819,248.837
1114.897,1444.726,1481,,1114.897,576.102,592.421,,1114.897,250.776,2.49992,249.992,249.397
1117.109,1429.131,1457.3,,1117.109,572.643,583.804,,1117.109,249.568,2.49622,249.622,249.916
1119.321,1400.624,1435.28,,1119.321,558.727,574.676,,1119.321,250.681,2.49755,249.755,250.19
1121.534,1369.296,1408.15,,1121.534,542.991,561.379,,1121.534,252.177,2.50838,250.838,250.268
1123.746,1343.239,1380.08,,1123.746,534.618,550.187,,1123.746,251.252,2.50837,250.837,250.256
1125.959,1317.543,1354.15,,1125.959,521.969,539.044,,1125.959,252.418,2.51214,251.214,250.379
1128.171,1288.663,1327.46,,1128.171,512.41,527.379,,1128.171,251.491,2.51709,251.709,250.703
1130.384,1272.689,1303.15,,1130.384,505.941,517.299,,1130.384,251.549,2.51914,251.914,251.129
1132.596,1244.53,1279.68,,1132.596,492.015,507.577,,1132.596,252.946,2.52115,252.115,251.455
1134.809,1212.642,1252.99,,1134.809,476.541,494.825,,1134.809,254.468,2.53219,253.219,251.813
1137.021,1172.661,1221.7,,1137.021,467.339,482.482,,1137.021,250.923,2.53211,253.211,252.261
1139.233,1133.585,1186.24,,1139.233,447.226,469.085,,1139.233,253.47,2.52883,252.883,252.524
1141.446,1103.78,1150.91,,1141.446,436.474,453.839,,1141.446,252.886,2.53594,253.594,252.811
1143.658,1085.791,1122.37,,1143.658,427.176,442.761,,1143.658,254.179,2.53493,253.493,253.093
1145.871,1054.526,1095.13,,1145.871,417.603,433.352,,1145.871,252.519,2.5271,252.71,253.196
1148.083,1022.168,1064.85,,1148.083,406.664,423.006,,1148.083,251.354,2.51733,251.733,252.97
1150.296,993.989,1035.09,,1150.296,397.997,412.288,,1150.296,249.748,2.51061,251.061,252.69
1152.508,972.353,1008.65,,1152.508,378.873,399.405,,1152.508,256.644,2.52538,252.538,252.433
1154.721,943.532,982.185,,1154.721,371.929,386.306,,1154.721,253.686,2.54251,254.251,252.529
1156.933,921.709,956.092,,1156.933,362.529,377.74,,1156.933,254.244,2.53109,253.109,252.56
1159.145,898.793,930.549,,1159.145,345.945,365.105,,1159.145,259.808,2.54872,254.872,252.893
1161.358,875.146,907.626,,1161.358,337.269,352.556,,1161.358,259.48,2.57442,257.442,253.869
1163.57,846.589,882.457,,1163.57,331.501,343.465,,1163.57,255.381,2.56928,256.928,254.997
1165.783,813.21,854.325,,1165.783,320.367,334.68,,1165.783,253.837,2.55266,255.266,255.445
1167.995,793.375,826.975,,1167.995,314.595,325.575,,1167.995,252.189,2.54005,254.005,255.586
1170.208,774.538,804.645,,1170.208,309.912,318.454,,1170.208,249.922,2.52673,252.673,255.503
1172.42,758.153,784.83,,1172.42,302.319,311.822,,1172.42,250.779,2.51692,251.692,254.717
1174.633,737.675,766.394,,1174.633,293.452,303.95,,1174.633,251.378,2.52145,252.145,253.67
1176.845,714.104,745.477,,1176.845,287.311,296.555,,1176.845,248.547,2.51379,251.379,252.788
1179.057,693.804,724.526,,1179.057,269.168,287.512,,1179.057,257.759,2.51998,251.998,252.135
1181.27,677.048,704.783,,1181.27,259.57,275.388,,1181.27,260.834,2.55924,255.924,252.349
1183.482,659.563,685.482,,1183.482,258.334,266.759,,1183.482,255.314,2.56966,256.966,253.25
1185.695,641.622,667.455,,1185.695,253.916,260.707,,1185.695,252.691,2.56017,256.017,254.083
1187.907,616.679,648.597,,1187.907,251.678,256.108,,1187.907,245.027,2.53251,253.251,254.483
1190.12,598.008,626.616,,1190.12,240.621,251.416,,1190.12,248.527,2.49235,249.235,254.271
1192.332,585.154,608.11,,1192.332,233.382,244.964,,1192.332,250.728,2.48244,248.244,253.31
1194.545,566.481,591.587,,1194.545,223.506,236.57,,1194.545,253.452,2.50069,250.069,251.94
1196.757,556.171,575.056,,1196.757,220.356,227.657,,1196.757,252.397,2.52598,252.598,251.071
1198.969,552.86,565.042,,1198.969,222.843,224.322,,1198.969,248.094,2.51889,251.889,250.586
1201.182,537.277,554.148,,1201.182,222.693,224.009,,1201.182,241.264,2.47378,247.378,250.158
1203.394,532.147,544.355,,1203.394,227.543,224.733,,1203.394,233.867,2.42224,242.224,249.26
1205.607,521.837,535.156,,1205.607,221.393,224.578,,1205.607,235.706,2.38294,238.294,247.416
1207.819,510.163,525.501,,1207.819,215.152,219.749,,1207.819,237.117,2.39137,239.137,245.099
1210.032,489.49,512.127,,1210.032,210.821,215.869,,1210.032,232.183,2.3724,237.24,242.347
1212.244,473.635,496.382,,1212.244,206.855,212.013,,1212.244,228.97,2.34128,234.128,239.493
1214.456,455.783,481.166,,1214.456,197.525,207.03,,1214.456,230.747,2.32413,232.413,237.059
1216.669,422.841,460.183,,1216.669,185.106,198.968,,1216.669,228.432,2.31285,231.285,235.433
1218.881,387.628,430.578,,1218.881,171.779,188.373,,1218.881,225.655,2.28578,228.578,233.667
1221.094,357.508,400.281,,1221.094,151.726,174.676,,1221.094,235.627,2.29156,229.156,231.789
1223.306,327.299,370.403,,1223.306,139.766,159.438,,1223.306,234.176,2.32318,232.318,230.957
1225.519,302.912,341.593,,1225.519,124.081,145.808,,1225.519,244.124,2.34276,234.276,231.014
1227.731,288.528,318.105,,1227.731,117.488,132.501,,1227.731,245.581,2.40078,240.078,232.198
1229.944,268.875,298.367,,1229.944,112.353,124.089,,1229.944,239.313,2.40447,240.447,234.128
1232.156,246.317,278.015,,1232.156,97.22,114.347,,1232.156,253.36,2.43132,243.132,236.654
1234.368,225.672,255.895,,1234.368,97.727,105.743,,1234.368,230.921,2.41998,241.998,239.041
1236.581,218.395,237.556,,1236.581,95.509,101.209,,1236.581,228.664,2.3472,234.72,239.791
1238.793,208.305,225.61,,1238.793,88.568,95.5963,,1238.793,235.192,2.36003,236.003,239.482
1241.006,191.857,212.137,,1241.006,82.539,89.3296,,1241.006,232.444,2.37476,237.476,238.765
1242.586,190.629,203.118,,1242.586,79.058,86.0609,,1242.586,241.126,2.36017,236.017,