File: public_html/data/backup/plexiglas_6C02.csv
wavelength_nm,intensity,intensity_smoothed,,wavelength_nm2,intensity_i0,intensity_i0_smoothed,,wavelength_nm3,,transmission,transmission_perc,transmission_perc_smoothed
173.232,22.939,#N/A,,173.232,26.786,#N/A,,173.232,85.638,#N/A,#N/A,#N/A
175.084,31.863,25.3439,,175.084,38.604,29.6984,,175.084,82.5381,0.853378,85.3378,#N/A
176.935,29.498,28.4017,,176.935,36.058,34.7287,,176.935,81.8071,0.817815,81.7815,#N/A
178.787,31.497,28.2611,,178.787,36.057,35.7311,,178.787,87.3534,0.790938,79.0938,#N/A
180.639,34.678,30.8112,,180.639,33.693,36.2498,,180.639,102.923,0.84997,84.997,#N/A
182.491,34.496,32.7958,,182.491,35.146,34.8517,,182.491,98.1506,0.94101,94.101,#N/A
184.342,33.04,33.2248,,184.342,38.873,36.5629,,184.342,84.9947,0.908702,90.8702,86.3018
186.194,32.221,32.002,,186.194,37.236,37.7408,,186.194,86.5319,0.847941,84.7941,86.8656
188.046,31.766,32.925,,188.046,41.599,37.9195,,188.046,76.3624,0.868287,86.8287,88.0163
189.897,28.038,31.9872,,189.897,38.507,39.5136,,189.897,72.8127,0.809525,80.9525,88.2263
191.749,29.946,30.3325,,191.749,31.688,37.3555,,191.749,94.5027,0.811996,81.1996,86.3945
193.601,35.218,31.64,,193.601,33.505,35.5764,,193.601,105.113,0.889353,88.9353,84.9571
195.453,31.035,32.5997,,195.453,33.504,35.1224,,195.453,92.6307,0.928176,92.8176,85.7372
197.304,26.58,30.5814,,197.304,32.14,34.8236,,197.304,82.7007,0.878179,87.8179,86.3917
199.156,31.67,29.9623,,199.156,31.503,33.8949,,199.156,100.53,0.883975,88.3975,86.9326
201.008,34.85,32.8838,,201.008,34.684,33.8897,,201.008,100.479,0.970317,97.0317,89.7129
202.86,34.122,34.3506,,202.86,34.683,34.1697,,202.86,98.3825,1.00529,100.529,92.5647
204.711,33.94,34.3543,,204.711,35.227,35.1271,,204.711,96.3466,0.977998,97.7998,93.9024
206.563,32.393,33.1503,,206.563,32.136,34.3423,,206.563,100.8,0.965293,96.5293,94.9054
208.415,33.392,32.8025,,208.415,36.68,34.8728,,208.415,91.036,0.940632,94.0632,96.4112
210.267,30.482,31.9266,,210.267,34.316,35.8565,,210.267,88.8274,0.8904,89.04,96.0138
212.118,31.209,30.8409,,212.118,32.679,35.2305,,212.118,95.5017,0.875404,87.5404,93.9968
213.97,30.571,30.0859,,213.97,29.859,33.8215,,213.97,102.385,0.88955,88.955,91.9441
215.822,29.661,30.0423,,215.822,29.859,31.0561,,215.822,99.3369,0.967355,96.7355,91.5395
217.673,30.297,30.7498,,217.673,35.858,33.0981,,217.673,84.4916,0.92905,92.905,91.3181
219.525,27.478,29.8623,,219.525,29.402,33.5853,,219.525,93.4562,0.889147,88.9147,90.8989
221.377,34.204,30.9025,,221.377,33.31,32.2544,,221.377,102.684,0.958088,95.8088,91.9548
223.229,32.839,32.6681,,223.229,37.764,34.2879,,223.229,86.9585,0.952759,95.2759,93.5487
225.08,30.747,32.3307,,225.08,38.763,35.4599,,225.08,79.3205,0.911755,91.1755,93.5019
226.932,32.746,32.1521,,226.932,38.217,37.2011,,226.932,85.6844,0.864277,86.4277,91.8476
228.784,33.745,32.3198,,228.784,32.761,36.0345,,228.784,103.004,0.896912,89.6912,91.422
230.636,34.199,33.1387,,230.636,29.397,34.1797,,230.636,116.335,0.969544,96.9544,92.0642
232.487,27.743,31.8653,,232.487,33.214,33.1807,,232.487,83.528,0.960355,96.0355,92.2899
234.339,30.833,30.4849,,234.339,34.304,34.4358,,234.339,89.8816,0.88527,88.527,91.7304
236.191,37.56,33.2673,,236.191,27.485,31.4748,,236.191,136.656,1.05695,105.695,93.7383
238.043,33.74,34.8357,,238.043,35.848,30.3274,,238.043,94.1196,1.14865,114.865,98.9792
239.894,40.921,35.8995,,239.894,44.574,35.5211,,239.894,91.8046,1.01065,101.065,101.149
241.746,49.829,41.9934,,241.746,53.482,42.8589,,241.746,93.1697,0.979807,97.9807,101.071
243.598,52.374,47.7302,,243.598,62.208,50.6793,,243.598,84.1917,0.941808,94.1808,101.615
245.449,52.1,50.9296,,245.449,62.662,56.7962,,245.449,83.1445,0.896708,89.6708,101.009
247.301,56.008,52.0416,,247.301,66.025,60.0306,,247.301,84.8285,0.866916,86.6916,96.2711
249.153,59.371,55.0551,,249.153,75.569,66.0606,,249.153,78.5653,0.833402,83.3402,91.8159
251.005,61.006,57.5775,,251.005,79.023,71.749,,251.005,77.2003,0.802485,80.2485,88.4175
252.856,55.914,58.1169,,252.856,77.567,74.9429,,252.856,72.0848,0.775482,77.5482,85.0039
254.681,63.822,59.3026,,254.681,79.021,76.3829,,254.681,80.7659,0.776386,77.6386,82.2525
256.513,63.457,62.1218,,256.513,83.292,79.0528,,256.513,76.1862,0.785827,78.5827,80.3484
258.347,68.274,63.4057,,258.347,84.019,82.1099,,258.347,81.2602,0.772206,77.2206,78.7409
260.181,66.91,64.8585,,260.181,84.472,83.6374,,260.181,79.2097,0.775473,77.5473,77.8805
262.017,68.636,66.2702,,262.017,81.108,83.7727,,262.017,84.623,0.791071,79.1071,77.7584
263.853,65.908,68.131,,263.853,85.197,83.7059,,263.853,77.3595,0.813933,81.3933,78.5445
265.691,63.906,67.851,,265.691,83.469,84.7439,,265.691,76.5626,0.80066,80.066,78.9533
267.53,69.905,68.5078,,267.53,78.923,83.0577,,267.53,88.5737,0.824822,82.4822,79.658
269.369,71.995,70.3957,,269.369,82.013,82.1681,,269.369,87.7849,0.856728,85.6728,81.086
271.21,73.63,70.1073,,271.21,81.648,82.5729,,271.21,90.1798,0.849036,84.9036,82.4312
273.052,74.629,71.9958,,273.052,78.374,81.0571,,273.052,95.2216,0.88821,88.821,83.7463
274.895,68.992,71.2052,,274.895,79.009,79.5774,,274.895,87.3217,0.894793,89.4793,85.4271
276.739,69.991,69.7307,,276.739,83.554,81.013,,276.739,83.7674,0.860735,86.0735,86.663
278.584,67.626,69.4181,,278.584,79.462,81.556,,278.584,85.1048,0.851171,85.1171,86.8297
280.431,64.988,67.9742,,280.431,84.461,81.9941,,280.431,76.9444,0.829013,82.9013,86.5567
282.278,64.351,66.1854,,282.278,87.55,84.3235,,282.278,73.502,0.784899,78.4899,85.3139
284.126,63.895,65.6014,,284.126,87.549,85.4577,,284.126,72.982,0.767648,76.7648,83.0162
285.976,65.53,65.6007,,285.976,89.821,87.2231,,285.976,72.9562,0.752102,75.2102,80.7073
287.826,71.711,67.6579,,287.826,86.82,87.5194,,287.826,82.5973,0.773061,77.3061,78.9828
289.678,68.437,69.8286,,289.678,88.001,87.5632,,289.678,77.7684,0.797465,79.7465,77.9449
291.531,67.618,68.3771,,291.531,82.999,86.9141,,291.531,81.4685,0.78672,78.672,77.4756
293.385,68.071,68.0966,,293.385,86.544,86.0818,,293.385,78.6548,0.791068,79.1068,77.7094
295.239,69.979,68.4477,,295.239,83.452,86.6223,,295.239,83.8554,0.790185,79.0185,78.1948
297.095,61.25,66.6772,,297.095,80.632,83.1922,,297.095,75.9624,0.801484,80.1484,79.0492
298.952,68.34,65.7389,,298.952,84.904,83.8708,,298.952,80.4909,0.783811,78.3811,79.0722
300.81,68.066,67.4181,,300.81,81.721,82.882,,300.81,83.2907,0.813423,81.3423,79.3635
302.669,69.792,68.3681,,302.669,90.811,84.7768,,302.669,76.8541,0.806449,80.6449,79.7894
304.53,71.336,69.3366,,304.53,88.537,86.7993,,304.53,80.572,0.798815,79.8815,79.9776
306.391,66.881,69.1955,,306.391,85.536,86.9114,,306.391,78.1905,0.796162,79.6162,79.975
308.253,65.152,67.211,,308.253,82.171,84.5328,,308.253,79.2883,0.795088,79.5088,80.0085
310.117,65.969,66.1798,,310.117,84.624,82.3974,,310.117,77.9554,0.803178,80.3178,80.0869
311.981,69.786,67.6628,,311.981,90.623,85.0406,,311.981,77.0069,0.795653,79.5653,79.7561
313.847,65.875,67.5777,,313.847,85.258,86.5371,,313.847,77.2655,0.78091,78.091,79.5028
315.713,66.601,66.7567,,315.713,86.621,85.0832,,315.713,76.8878,0.784605,78.4605,79.2087
317.581,73.6,68.624,,317.581,89.074,85.5077,,317.581,82.6279,0.802548,80.2548,79.1756
319.45,73.69,71.2161,,319.45,86.709,86.1281,,319.45,84.9854,0.826862,82.6862,79.568
321.319,68.779,70.1396,,321.319,85.071,85.8514,,321.319,80.8489,0.816988,81.6988,79.9123
323.19,68.596,69.088,,323.19,89.525,86.5611,,323.19,76.6222,0.798142,79.8142,80.1944
325.062,66.413,67.7638,,325.062,82.524,87.1706,,325.062,80.4772,0.77737,77.737,80.1635
326.935,67.957,67.5068,,326.935,88.25,86.2735,,326.935,77.0051,0.782474,78.2474,80.0964
328.809,69.319,67.8243,,328.809,91.521,87.842,,328.809,75.7411,0.772116,77.2116,79.3634
330.685,69.5,68.7239,,330.685,97.156,91.0015,,330.685,71.5344,0.755195,75.5195,78.2059
332.561,69.498,69.0996,,332.561,89.337,92.2346,,332.561,77.7931,0.749172,74.9172,77.0215
334.438,68.224,68.9979,,334.438,91.608,90.0201,,334.438,74.4738,0.766472,76.6472,76.6028
336.316,70.496,69.5399,,336.316,91.879,91.5528,,336.316,76.727,0.75956,75.956,76.2073
338.196,64.858,68.0859,,338.196,87.424,90.232,,338.196,74.1879,0.754565,75.4565,75.813
340.076,66.311,65.6728,,340.076,90.422,89.0709,,340.076,73.335,0.73731,73.731,75.3656
341.958,69.401,67.8668,,341.958,88.694,88.8436,,341.958,78.2477,0.763891,76.3891,75.4363
343.84,60.581,67.8245,,343.84,88.42,88.2726,,343.84,68.515,0.768353,76.8353,75.621
345.724,73.034,66.8177,,345.724,94.418,90.3649,,345.724,77.3518,0.73942,73.942,75.2753
347.609,74.037,71.5147,,347.609,94.789,93.2687,,347.609,78.1072,0.76676,76.676,75.3025
349.495,68.766,71.5439,,349.495,91.155,93.6846,,349.495,75.4385,0.763668,76.3668,75.6794
351.382,73.708,71.399,,351.382,90.863,92.7503,,351.382,81.1199,0.769798,76.9798,76.0795
353.269,71.523,71.5174,,353.269,93.89,92.5566,,353.269,76.1774,0.772688,77.2688,76.1662
355.158,74.153,71.6869,,355.158,91.527,92.7964,,355.158,81.0176,0.772518,77.2518,76.5471
357.048,74.425,73.2839,,357.048,92.684,93.1377,,357.048,80.2997,0.786834,78.6834,77.18
358.94,78.614,75.3355,,358.94,95.218,94.2336,,358.94,82.5621,0.799455,79.9455,77.6713
360.832,81.926,78.2943,,360.832,96.431,95.4034,,360.832,84.9582,0.820665,82.0665,78.6446
362.725,73.938,78.6892,,362.725,93.62,95.0673,,362.725,78.9767,0.827721,82.7721,79.6385
364.619,73.62,76.1248,,364.619,105.359,96.5883,,364.619,69.8754,0.788137,78.8137,80.2457
366.515,79.919,76.3299,,366.515,104.282,101.133,,366.515,76.6374,0.754746,75.4746,79.8588
368.411,77.575,77.7181,,368.411,101.47,101.551,,368.411,76.4512,0.76531,76.531,79.3361
370.308,78.504,78.0296,,370.308,97.975,100.897,,370.308,80.1266,0.773359,77.3359,78.6025
372.207,79.084,78.4406,,372.207,105.848,101.347,,372.207,74.7147,0.77398,77.398,77.6576
374.107,78.767,77.5683,,374.107,105.608,103.386,,374.107,74.5843,0.75028,75.028,76.5417
376.007,80.192,78.1832,,376.007,106.189,104.33,,376.007,75.5182,0.749382,74.9382,76.1785
377.909,77.946,78.4489,,377.909,105.226,104.795,,377.909,74.0748,0.748592,74.8592,75.9777
379.812,82.033,79.5995,,379.812,111.582,106.882,,379.812,73.5181,0.74474,74.474,75.6074
381.716,76.614,80.4682,,381.716,114.291,109.895,,381.716,67.0341,0.732231,73.2231,74.8659
383.62,79.815,79.1736,,383.62,112.097,112.163,,383.62,71.2017,0.705881,70.5881,73.9082
385.526,85.304,80.87,,385.526,116.28,112.79,,385.526,73.3609,0.716997,71.6997,73.1981
387.433,85.917,83.0142,,387.433,115.424,114.342,,387.433,74.436,0.72602,72.602,72.699
389.341,85.734,83.8981,,389.341,119.767,115.64,,389.341,71.584,0.725509,72.5509,72.3158
391.25,88.584,84.7949,,391.25,130.241,120.838,,391.25,68.0154,0.701725,70.1725,71.7531
393.161,98.094,89.1386,,393.161,141.583,128.167,,393.161,69.2837,0.69549,69.549,71.3573
395.072,105.258,95.8974,,395.072,162.278,140.311,,395.072,64.8628,0.683462,68.3462,70.9918
396.984,113.624,102.328,,396.984,184.699,157.71,,396.984,61.5185,0.64884,64.884,69.8046
398.897,138.143,113.763,,398.897,227.497,182.636,,398.897,60.723,0.622893,62.2893,67.9544
400.812,173.504,135.21,,400.812,289.932,221.57,,400.812,59.843,0.610235,61.0235,65.9805
402.727,219.591,166.932,,402.727,375.612,277.644,,402.727,58.4622,0.601245,60.1245,64.2152
404.644,284.33,210.463,,404.644,524.35,364.121,,404.644,54.2252,0.578004,57.8004,62.1976
406.561,368.702,269.492,,406.561,752.631,501.419,,406.561,48.9884,0.537458,53.7458,59.9587
408.48,493.423,352.132,,408.48,1090.276,712.968,,408.48,45.2567,0.493896,49.3896,57.4697
410.4,637.176,462.091,,410.4,1576.714,1024.69,,410.4,40.4116,0.450958,45.0958,54.5632
412.32,820.63,599.09,,412.32,2292.428,1484.04,,412.32,35.7974,0.403689,40.3689,50.9612
414.242,1055.731,771.384,,414.242,3303.056,2146.55,,414.242,31.9622,0.35936,35.936,46.7725
416.165,1374.373,996.118,,416.165,4719.128,3089.8,,416.165,29.1235,0.322389,32.2389,42.4357
418.089,1811.431,1298.08,,418.089,6623.23,4399.73,,418.089,27.3497,0.295037,29.5037,38.3512
420.014,2416.22,1711.96,,420.014,9137.17,6168.31,,420.014,26.4439,0.277541,27.7541,34.6819
421.939,3236.469,2278.6,,421.939,12355.714,8501.15,,421.939,26.1941,0.268034,26.8034,31.6485
423.866,4242.907,3026.19,,423.866,16253.351,11472.2,,423.866,26.1048,0.263785,26.3785,29.3897
425.795,5371.443,3944.91,,425.795,20920.267,15116.3,,425.795,25.6758,0.260972,26.0972,27.8593
427.724,6408.45,4961.73,,427.724,26342.847,19491.6,,427.724,24.3271,0.254557,25.4557,26.8553
429.654,7143.21,5919.07,,429.654,32472.644,24593,,429.654,21.9976,0.240682,24.0682,26.0684
431.585,7500.255,6668.85,,431.585,39466.603,30450.9,,431.585,19.0041,0.219003,21.9003,25.1751
433.517,7422.309,7101.41,,433.517,47212.176,37095.6,,433.517,15.7212,0.191436,19.1436,23.9203
435.451,7004.839,7173.51,,435.451,57567.013,44916.7,,435.451,12.1681,0.159707,15.9707,22.1509
437.385,6399.357,6936.39,,437.385,64000,53518.3,,437.385,9.999,0.129608,12.9608,19.8613
439.32,5767.191,6495.21,,439.32,64000,58986.7,,439.32,9.01124,0.110113,11.0113,17.322
441.257,5198.709,5965.19,,441.257,64000,61602.1,,441.257,8.12298,0.0968342,9.68342,14.8325
443.194,4777.091,5451.54,,443.194,63787.125,62827.3,,443.194,7.48911,0.0867701,8.67701,12.5986
445.133,4537.947,5030.58,,445.133,62883.234,63135.6,,445.133,7.21647,0.079679,7.9679,10.7678
447.072,4435.293,4744.73,,447.072,61142.14,62615.5,,447.072,7.25407,0.0757756,7.57756,9.45385
449.013,4441.603,4582.81,,449.013,56984.331,60958,,449.013,7.79443,0.0751797,7.51797,8.59581
450.955,4466.901,4518.29,,450.955,48943.691,56974.3,,450.955,9.12661,0.079304,7.9304,8.09782
452.897,4398.848,4479.32,,452.897,40056.044,50478,,452.897,10.9817,0.088738,8.8738,7.97393
454.841,4155.583,4385.09,,454.841,32726.301,43097.4,,454.841,12.698,0.101748,10.1748,8.24679
456.786,3692.664,4157.32,,456.786,27131.96,36193.8,,456.786,13.61,0.114863,11.4863,8.88015
458.732,3061.092,3760.14,,458.732,22827.2,30323.6,,458.732,13.4098,0.124,12.4,9.76048
460.679,2350.921,3215.14,,460.679,19324.818,25488.8,,460.679,12.1653,0.126139,12.6139,10.6971
462.627,1702.952,2594.7,,462.627,16380.89,21505.9,,462.627,10.396,0.120651,12.0651,11.4481
464.576,1189.115,1990.6,,464.576,13857.231,18175.3,,464.576,8.58119,0.109523,10.9523,11.8043
466.526,845.424,1477.79,,466.526,11729.578,15364,,466.526,7.20763,0.0961854,9.61854,11.6623
468.477,639.29,1090.31,,468.477,9995.534,13006.5,,468.477,6.39576,0.0838279,8.38279,11.0566
470.429,557.812,829.734,,470.429,8656.172,11077,,470.429,6.4441,0.0749057,7.49057,10.1412
472.382,548.881,683.125,,472.382,7635.598,9541.11,,472.382,7.18845,0.0715981,7.15981,9.15436
474.336,609.16,624.681,,474.336,6854.628,8338.67,,474.336,8.88684,0.0749138,7.49138,8.34632
476.292,740.808,645.874,,476.292,6260.377,7405.36,,476.292,11.8333,0.0872171,8.72171,7.95355
478.248,958.143,745.691,,478.248,5803.889,6686.65,,478.248,16.5086,0.111519,11.1519,8.20037
480.205,1275.637,931.132,,480.205,5461.718,6135.55,,480.205,23.356,0.15176,15.176,9.32744
482.164,1760.033,1225.55,,482.164,5237.861,5720.76,,482.164,33.6021,0.214228,21.4228,11.6313
484.123,2429.143,1666.94,,484.123,5160.507,5444.05,,484.123,47.0718,0.306195,30.6195,15.5207
486.083,3281.109,2275.72,,486.083,5228.466,5308.26,,486.083,62.7547,0.428713,42.8713,21.4338
488.045,4245.906,3042.54,,488.045,5480.019,5324.94,,488.045,77.4798,0.571375,57.1375,29.6341
490.007,5285.61,3930.4,,490.007,5891.004,5504.92,,490.007,89.7234,0.71398,71.398,39.9747
491.971,6354.925,4908.87,,491.971,6468.471,5846.97,,491.971,98.2446,0.839557,83.9557,51.8741
493.936,7406.91,5931.59,,493.936,7190.779,6348.99,,493.936,103.006,0.934258,93.4258,64.3279
495.901,8441.588,6964.18,,495.901,8029.417,6994.04,,495.901,105.133,0.99573,99.573,76.13
497.868,9539.685,8008.81,,497.868,9011.373,7778.88,,497.868,105.863,1.02956,102.956,86.1994
499.836,10733.49,9111.67,,499.836,10104.749,8696.37,,499.836,106.222,1.04776,104.776,93.9551
501.804,11948.833,10263.5,,501.804,11270.159,9726.87,,501.804,106.022,1.05517,105.517,99.32
503.774,13255.346,11473.3,,503.774,12464.423,10834.2,,503.774,106.345,1.05899,105.899,102.63
505.745,14590.577,12742.4,,505.745,13673.219,11989.4,,505.745,106.709,1.06281,106.281,104.493
507.717,15943.654,14054,,507.717,14872.93,13172.9,,507.717,107.199,1.06688,106.688,105.506
509.69,17279.123,15379.1,,509.69,16056.998,14363.8,,509.69,107.611,1.07069,107.069,106.097
511.664,18634.399,16718.4,,511.664,17217.394,15546.2,,511.664,108.23,1.07541,107.541,106.52
513.639,19849.504,18035.7,,513.639,18283.309,16693.9,,513.639,108.566,1.08038,108.038,106.938
515.615,20914.367,19256.1,,515.615,19258.438,17775.9,,515.615,108.598,1.08327,108.327,107.355
517.592,21819.999,20360.2,,517.592,20128.144,18776.6,,517.592,108.405,1.08434,108.434,107.729
519.57,22528.157,21307.8,,519.57,20880.749,19677.7,,519.57,107.89,1.08284,108.284,108.013
521.549,23164.763,22112.3,,521.549,21567.103,20481.6,,521.549,107.408,1.07962,107.962,108.165
523.529,23647.089,22794.5,,523.529,22195.328,21213.8,,523.529,106.541,1.07451,107.451,108.137
525.51,23999.812,23333.6,,525.51,22691.129,21857.8,,525.51,105.767,1.06752,106.752,107.904
527.493,24227.666,23746.3,,527.493,23058.875,22393.1,,527.493,105.069,1.06043,106.043,107.497
529.476,24334.601,24022.4,,529.476,23304.066,22803.7,,529.476,104.422,1.05344,105.344,106.957
531.46,24361.443,24195.4,,531.46,23470.938,23114.7,,531.46,103.794,1.04675,104.675,106.335
533.446,24269.086,24256,,533.446,23511.018,23315.5,,533.446,103.224,1.04034,104.034,105.663
535.432,24169.034,24238.6,,535.432,23522.14,23420.3,,535.432,102.75,1.03494,103.494,104.999
537.419,24041.824,24171,,537.419,23550.666,23479.6,,537.419,102.086,1.02945,102.945,104.369
539.408,23907.483,24074.8,,539.408,23514.322,23508.5,,539.408,101.672,1.02409,102.409,103.767
541.397,23778.859,23957.3,,541.397,23421.676,23487.5,,541.397,101.525,1.02,102,103.208
543.388,23643.733,23834.6,,543.388,23308.611,23427,,543.388,101.438,1.0174,101.74,102.717
545.379,23501.473,23699.5,,545.379,23191.606,23337.7,,545.379,101.336,1.0155,101.55,102.301
547.372,23334.775,23557.5,,547.372,23067.082,23233,,547.372,101.16,1.01397,101.397,101.955
549.365,23131.051,23388.1,,549.365,22873.453,23102.2,,549.365,101.126,1.01237,101.237,101.685
551.36,22953.85,23210.5,,551.36,22657.524,22929.7,,551.36,101.308,1.01225,101.225,101.496
553.356,22710.414,23015.8,,553.356,22458.012,22738.3,,553.356,101.124,1.01221,101.221,101.374
555.352,22468.859,22794.5,,555.352,22260.207,22544.8,,555.352,100.937,1.01107,101.107,101.278
557.35,22215.898,22560.3,,557.35,21989.908,22330.1,,557.35,101.028,1.01031,101.031,101.195
559.349,21890.239,22298.1,,559.349,21709.137,22080.9,,559.349,100.834,1.00984,100.984,101.134
561.348,21577.284,22002.3,,561.348,21446.354,21819.4,,561.348,100.611,1.00839,100.839,101.07
563.349,21254.57,21696,,563.349,21149.204,21549.7,,563.349,100.498,1.00679,100.679,100.974
565.351,20916.03,21380.9,,565.351,20809.542,21256.4,,565.351,100.512,1.00585,100.585,100.866
567.354,20520.107,21042.4,,567.354,20445.19,20936.2,,567.354,100.366,1.00507,100.507,100.765
569.358,20148.575,20674.9,,569.358,20090.264,20589.1,,569.358,100.29,1.00417,100.417,100.657
571.363,19685.456,20284.2,,571.363,19686.427,20228.3,,571.363,99.9951,1.00276,100.276,100.544
573.368,19287.56,19864.9,,573.368,19315.428,19846,,573.368,99.8557,1.00096,100.096,100.426
575.375,18938.262,19478.5,,575.375,18986.807,19488.9,,575.375,99.7443,0.999465,99.9465,100.304
577.383,18535.395,19101,,577.383,18574.161,19122.9,,577.383,99.7913,0.998854,99.8854,100.178
579.392,18094.144,18695.7,,579.392,18171.353,18727.8,,579.392,99.5751,0.998289,99.8289,100.06
581.402,17631.618,18264.8,,581.402,17776.569,18343.2,,581.402,99.1846,0.995723,99.5723,99.9249
583.413,17196.307,17822.2,,583.413,17345.495,17939.5,,583.413,99.1399,0.993461,99.3461,99.7758
585.425,16803.149,17394.4,,585.425,16927.19,17522,,585.425,99.2672,0.992719,99.2719,99.6346
587.439,16350.25,16972.7,,587.439,16478.458,17098.9,,587.439,99.222,0.992621,99.2621,99.5125
589.453,15890.435,16529.2,,589.453,16021.565,16657.7,,589.453,99.1815,0.992281,99.2281,99.3933
591.468,15474.91,16088.2,,591.468,15595.936,16217,,591.468,99.224,0.992056,99.2056,99.2952
593.484,15048.343,15659.7,,593.484,15135.761,15776.2,,593.484,99.4224,0.992614,99.2614,99.2511
595.501,14560.396,15220.2,,595.501,14661.348,15320.5,,595.501,99.3114,0.993455,99.3455,99.254
597.519,14054.613,14743.4,,597.519,14208.392,14858.6,,597.519,98.9177,0.992243,99.2243,99.2537
599.539,13614.083,14268.4,,599.539,13742.769,14406.5,,599.539,99.0636,0.990413,99.0413,99.2223
601.559,13137.073,13809.3,,601.559,13250.632,13937.9,,601.559,99.143,0.990768,99.0768,99.1927
603.58,12632.321,13327.1,,603.58,12766.031,13456.8,,603.58,98.9526,0.990364,99.0364,99.1639
605.602,12180.958,12849.7,,605.602,12339.477,12986.6,,605.602,98.7154,0.989463,98.9463,99.1035
607.626,11708.36,12379.3,,607.626,11850.801,12526.1,,607.626,98.798,0.988285,98.8285,99.0197
609.65,11267.095,11911.7,,609.65,11365.108,12046.9,,609.65,99.1376,0.988773,98.8773,98.968
611.675,10811.469,11456.8,,611.675,10930.839,11580.6,,611.675,98.908,0.989305,98.9305,98.9459
613.702,10338.651,10998.5,,613.702,10480.543,11125.3,,613.702,98.6461,0.988603,98.8603,98.9101
615.729,9906.495,10543.7,,615.729,10058.86,10678.5,,615.729,98.4853,0.987381,98.7381,98.8655
617.757,9490.766,10107.7,,617.757,9626.625,10242.3,,617.757,98.5887,0.986858,98.6858,98.826
619.787,9072.783,9680.42,,619.787,9178.597,9804.92,,619.787,98.8472,0.987302,98.7302,98.8008
621.817,8679.617,9262.85,,621.817,8739.57,9363.02,,621.817,99.314,0.989301,98.9301,98.7889
623.849,8297.093,8861.3,,623.849,8378.301,8944.18,,623.849,99.0307,0.990733,99.0733,98.8147
625.881,7902.415,8464.47,,625.881,8018.036,8559.97,,625.881,98.558,0.988843,98.8843,98.8425
627.915,7507.833,8069.32,,627.915,7612.591,8173.49,,627.915,98.6239,0.987256,98.7256,98.8544
629.949,7135.853,7680.55,,629.949,7253.439,7787.88,,629.949,98.3789,0.986218,98.6218,98.8498
631.985,6804.965,7312.77,,631.985,6920.723,7425.09,,631.985,98.3274,0.984873,98.4873,98.799
634.021,6492.132,6969.09,,634.021,6588.839,7077.77,,634.021,98.5323,0.984646,98.4646,98.6949
636.059,6171.902,6639.72,,636.059,6255.693,6735.87,,636.059,98.6606,0.985726,98.5726,98.6058
638.098,5845.772,6311.31,,638.098,5940.561,6402.08,,638.098,98.4044,0.985822,98.5822,98.5664
640.137,5537.369,5988.7,,640.137,5647.062,6082.74,,640.137,98.0575,0.98454,98.454,98.5294
642.178,5249.479,5678.6,,642.178,5351.739,5777.91,,642.178,98.0892,0.982812,98.2812,98.4838
644.219,4985.267,5387.9,,644.219,5077.458,5483.36,,644.219,98.1843,0.982591,98.2591,98.4467
646.262,4708.4,5108.33,,646.262,4811.13,5203.37,,646.262,97.8647,0.981733,98.1733,98.3885
648.306,4455.143,4835.14,,648.306,4540.322,4928.5,,648.306,98.1239,0.981059,98.1059,98.2967
650.35,4210.231,4573.92,,650.35,4299.885,4664.42,,650.35,97.915,0.980597,98.0597,98.2101
652.396,3993.782,4326.98,,652.396,4069.196,4416.55,,652.396,98.1467,0.97972,97.972,98.1391
654.443,3766.915,4095.86,,654.443,3845.692,4178.94,,654.443,97.9516,0.980117,98.0117,98.0891
656.49,3552.107,3867.8,,656.49,3614.831,3945.61,,656.49,98.2648,0.980277,98.0277,98.0479
658.539,3343.752,3650.04,,658.539,3395.884,3715.16,,658.539,98.4648,0.982472,98.2472,98.0579
660.589,3138.655,3435.92,,660.589,3212.113,3501.78,,660.589,97.7131,0.981192,98.1192,98.0738
662.64,2952.751,3232.6,,662.64,3008.504,3299.99,,662.64,98.1468,0.979576,97.9576,98.0674
664.691,2786.895,3043.98,,664.691,2825.846,3101.62,,664.691,98.6216,0.981416,98.1416,98.0828
666.744,2614.159,2867.4,,666.744,2665.607,2917.05,,666.744,98.0699,0.982978,98.2978,98.1349
668.798,2451.993,2693.82,,668.798,2508.898,2745.46,,668.798,97.7319,0.981192,98.1192,98.1479
670.853,2303.911,2529.86,,670.853,2354.692,2582.3,,670.853,97.8434,0.979693,97.9693,98.1061
672.909,2166.73,2377.06,,672.909,2213.672,2427.68,,672.909,97.8795,0.979151,97.9151,98.0901
674.965,2030.521,2232.4,,674.965,2086.494,2283.43,,674.965,97.3174,0.977652,97.7652,98.0507
677.023,1908.095,2095.8,,677.023,1964.424,2148.24,,677.023,97.1325,0.975589,97.5589,97.9298
679.082,1797.127,1969.38,,679.082,1847.565,2022.54,,679.082,97.27,0.973713,97.3713,97.7735
681.142,1693.033,1853.61,,681.142,1737.729,1903.79,,681.142,97.4279,0.973644,97.3644,97.6426
683.203,1576.605,1740.08,,683.203,1629.665,1789.43,,683.203,96.7441,0.972424,97.2424,97.519
685.265,1477.404,1628.08,,685.265,1520.884,1678.67,,685.265,97.1411,0.969865,96.9865,97.3621
687.327,1392.682,1527,,687.327,1427.089,1572.32,,687.327,97.589,0.971175,97.1175,97.2486
689.391,1300.141,1433.41,,689.391,1342.555,1474.85,,689.391,96.8408,0.971907,97.1907,97.2005
691.456,1220.042,1342.47,,691.456,1266.909,1386.44,,691.456,96.3007,0.968285,96.8285,97.122
693.522,1150.263,1260.78,,693.522,1181.382,1302.62,,693.522,97.3659,0.967877,96.7877,97.0086
695.589,1074.233,1183.33,,695.589,1099.399,1217.94,,695.589,97.7109,0.971582,97.1582,97.0005
697.657,1004.045,1107.59,,697.657,1034.453,1139.18,,697.657,97.0605,0.972273,97.2273,97.045
699.726,947.832,1038.6,,699.726,971.408,1066.88,,699.726,97.573,0.973485,97.3485,97.0636
701.796,886.804,976.524,,701.796,917.503,1001.66,,701.796,96.6541,0.974903,97.4903,97.1454
703.867,830.118,914.838,,703.867,861.064,943.417,,703.867,96.4061,0.969707,96.9707,97.2187
705.939,775.589,856.968,,705.939,804.537,885.41,,705.939,96.4019,0.967878,96.7878,97.1943
708.012,722.137,800.679,,708.012,759.323,831.585,,708.012,95.1027,0.962835,96.2835,97.0484
710.085,682.675,750.218,,710.085,719.139,783.449,,710.085,94.9295,0.957583,95.7583,96.7914
712.16,641.607,705.376,,712.16,670.14,738.668,,712.16,95.7422,0.954928,95.4928,96.4285
714.236,599.974,661.855,,714.236,626.682,690.974,,714.236,95.7382,0.957858,95.7858,96.1264
716.313,561.332,619.604,,716.313,586.621,647.561,,716.313,95.689,0.956828,95.6828,95.9082
718.391,521.686,577.821,,718.391,553.42,606.872,,718.391,94.2658,0.952129,95.2129,95.6719
720.47,492.572,540.121,,720.47,515.553,569.744,,720.47,95.5425,0.948007,94.8007,95.4514
722.55,462.701,507.906,,722.55,489.289,534.375,,722.55,94.566,0.950467,95.0467,95.3412
724.631,431.806,476.843,,724.631,456.046,503.092,,724.631,94.6847,0.947824,94.7824,95.2027
726.713,405.346,446.587,,726.713,427.384,471.345,,726.713,94.8435,0.947473,94.7473,95.0097
728.796,378.219,418.495,,728.796,406.484,444.036,,728.796,93.0465,0.942479,94.2479,94.8076
730.88,355.526,391.102,,730.88,378.822,417.772,,730.88,93.8504,0.936163,93.6163,94.5771
732.965,340.988,369.333,,732.965,361.79,392.676,,732.965,94.2503,0.940556,94.0556,94.3791
735.051,318.882,349.319,,735.051,344.187,371.911,,735.051,92.6479,0.939253,93.9253,94.2104
737.138,297.606,327.769,,737.138,327.822,352.608,,737.138,90.7828,0.929557,92.9557,93.9365
739.226,289.106,309.421,,739.226,309.223,335.6,,739.226,93.4943,0.921993,92.1993,93.5035
741.315,277.467,295.761,,741.315,291.064,317.051,,741.315,95.3285,0.932852,93.2852,93.3184
743.405,258.946,280.337,,743.405,276.402,299.691,,743.405,93.6846,0.935418,93.5418,93.2925
745.496,243.689,264.825,,745.496,267.689,285.57,,745.496,91.0344,0.927356,92.7356,93.0923
747.588,233.587,251.574,,747.588,249.668,272.766,,747.588,93.559,0.922309,92.2309,92.8434
749.681,215.401,237.728,,749.681,240.994,258.037,,749.681,89.3802,0.921295,92.1295,92.7953
751.775,210.109,223.482,,751.775,237.1,248.653,,751.775,88.6162,0.898771,89.8771,92.3963
753.87,207.037,215.54,,753.87,228.541,240.406,,753.87,90.5907,0.89657,89.657,91.6364
755.966,193.554,206.233,,755.966,222.743,232.847,,755.966,86.8957,0.885701,88.5701,90.8388
758.063,189.184,198.053,,758.063,209.387,224.581,,758.063,90.3514,0.881877,88.1877,90.0384
760.161,182.993,193.081,,760.161,198.162,212.747,,760.161,92.3452,0.90756,90.756,89.5972
762.26,173.299,185.993,,762.26,193.657,204.219,,762.26,89.4876,0.910754,91.0754,89.5924
764.36,161.057,176.823,,764.36,185.172,196.9,,764.36,86.977,0.898032,89.8032,89.7056
766.461,151.652,166.36,,766.461,185.015,190.823,,766.461,81.9674,0.871804,87.1804,89.4514
768.562,148.786,157.698,,768.562,177.598,186.254,,768.562,83.7768,0.846681,84.6681,88.9037
770.665,145.274,151.844,,770.665,168.205,179.624,,770.665,86.3672,0.845341,84.5341,87.9906
772.769,139.06,146.494,,772.769,160.362,171.275,,772.769,86.7163,0.855318,85.5318,86.8826
774.874,135.051,141.01,,774.874,156.442,163.531,,774.874,86.3266,0.862284,86.2284,86.0214
776.98,135.019,137.864,,776.98,157.256,159.793,,776.98,85.8594,0.862769,86.2769,85.5446
779.087,126.088,133.153,,779.087,150.343,156.351,,779.087,83.8669,0.85163,85.163,85.4751
781.195,122.535,127.502,,781.195,140.336,150.312,,781.195,87.3154,0.848252,84.8252,85.5613
783.304,120.267,124.752,,783.304,142.542,145.898,,783.304,84.373,0.85506,85.506,85.6639
785.414,115.49,121.577,,785.414,141.88,144.517,,785.414,81.3998,0.841263,84.1263,85.4317
787.525,109.959,118.021,,787.525,138.395,142.375,,787.525,79.453,0.828945,82.8945,84.8141
789.637,105.9,112.591,,789.637,135.958,140.064,,789.637,77.8917,0.803854,80.3854,83.9064
791.749,104.127,109.239,,791.749,131.269,136.744,,791.749,79.3234,0.798857,79.8857,82.9579
793.863,105.25,106.583,,793.863,129.371,132.71,,793.863,81.3552,0.803129,80.3129,81.992
795.978,105.287,106.338,,795.978,126.025,130.387,,795.978,83.5445,0.815559,81.5559,81.2273
798.094,103.746,105.208,,798.094,126.645,128.492,,798.094,81.9187,0.818791,81.8791,80.9326
800.211,98.875,102.657,,800.211,120.724,126.79,,800.211,81.9017,0.809665,80.9665,80.8162
802.329,102.822,101.85,,802.329,125.017,126.006,,802.329,82.2464,0.808293,80.8293,80.9856
804.448,99.72,101.461,,804.448,123.93,125.476,,804.448,80.4648,0.808604,80.8604,81.1557
806.567,99.504,100.183,,806.567,122.311,123.382,,806.567,81.3533,0.811975,81.1975,81.2458
808.688,101.339,99.767,,808.688,118.367,122.129,,808.688,85.6142,0.816901,81.6901,81.2062
810.81,99.576,98.9587,,810.81,125.329,121.378,,810.81,79.4517,0.815292,81.5292,81.3149
812.933,95.644,97.682,,812.933,123.13,122.682,,812.933,77.6773,0.796223,79.6223,81.1753
815.057,95.378,96.2452,,815.057,120.642,120.862,,815.057,79.0587,0.796325,79.6325,80.8795
817.181,97.468,95.9594,,817.181,129.685,123.09,,817.181,75.1575,0.779589,77.9589,80.4085
819.307,107.665,99.1683,,819.307,137.701,129.382,,819.307,78.1875,0.76648,76.648,79.5649
821.434,101.887,102.663,,821.434,141.814,134.579,,821.434,71.8455,0.762841,76.2841,78.5261
823.562,99.693,100.869,,823.562,150.847,140.696,,823.562,66.0888,0.716929,71.6929,77.1013
825.69,106.99,102.336,,825.69,162.962,148.914,,825.69,65.6533,0.687214,68.7214,75.2158
827.82,111.609,105.51,,827.82,184.395,161.474,,827.82,60.5271,0.653415,65.3415,72.8175
829.951,118.951,110.512,,829.951,200.202,177.52,,829.951,59.4155,0.622534,62.2534,70.1226
832.082,112.388,113.915,,832.082,211.484,192.708,,832.082,53.1426,0.591128,59.1128,66.9664
834.215,106.371,111.217,,834.215,217.983,204.276,,834.215,48.7978,0.544443,54.4443,63.4094
836.349,115.925,111.372,,836.349,222.188,211.359,,836.349,52.1743,0.526932,52.6932,60.1315
838.483,118.739,114.036,,838.483,255.234,223.382,,838.483,46.5216,0.510496,51.0496,57.1794
840.619,135.448,119.125,,840.619,308.756,252.75,,840.619,43.8689,0.471317,47.1317,54.2308
842.755,157.384,132.955,,842.755,374.652,296.792,,842.755,42.0081,0.447975,44.7975,51.2647
844.893,180.809,151.049,,844.893,464.696,359.307,,844.893,38.9091,0.42039,42.039,48.5809
847.032,205.365,173.047,,847.032,557.035,437.958,,847.032,36.8675,0.395122,39.5122,46.0971
849.171,234.008,196.605,,849.171,661.057,525.484,,849.171,35.3991,0.37414,37.414,43.39
851.312,256.813,222.609,,851.312,756.098,619.683,,851.312,33.9656,0.35923,35.923,40.9201
853.453,279.949,245.923,,853.453,857.691,715.358,,853.453,32.6398,0.343777,34.3777,38.7802
855.596,293.282,268.179,,855.596,945.06,813.531,,855.596,31.0332,0.329648,32.9648,36.8233
857.739,302.683,283.22,,857.739,1009.281,898.409,,857.739,29.99,0.315247,31.5247,35.1182
859.884,303.038,293.485,,859.884,1085.862,977.02,,859.884,27.9076,0.300388,30.0388,33.591
862.029,295.356,296.497,,862.029,1134.54,1048.31,,862.029,26.0331,0.282832,28.2832,32.0848
864.175,271.541,289.693,,864.175,1180.224,1104.7,,864.175,23.0076,0.262236,26.2236,30.5018
866.323,253.165,274.339,,866.323,1219.693,1154.71,,866.323,20.7565,0.237582,23.7582,28.7386
868.471,244.636,260.523,,868.471,1270.779,1200.42,,868.471,19.2509,0.217028,21.7028,26.8374
870.621,227.942,247.939,,870.621,1328.341,1250.62,,870.621,17.1599,0.198253,19.8253,24.8436
872.771,208.961,232.864,,872.771,1407.639,1310.18,,872.771,14.8448,0.177735,17.7735,22.7769
874.922,196.61,217.088,,874.922,1501.233,1383.95,,874.922,13.0966,0.156861,15.6861,20.6571
877.075,188.226,204.109,,877.075,1615.768,1472.94,,877.075,11.6493,0.138572,13.8572,18.6155
879.228,176.832,193.064,,879.228,1742.694,1578.64,,879.228,10.147,0.122297,12.2297,16.693
881.382,173.113,183.196,,881.382,1861.847,1694.73,,881.382,9.29792,0.108097,10.8097,14.8516
883.537,170.015,177.011,,883.537,1967.351,1809.46,,883.537,8.64182,0.0978254,9.78254,13.1685
885.694,167.706,171.926,,885.694,2063.009,1916.59,,885.694,8.12919,0.089704,8.9704,11.7185
887.851,169.359,170.64,,887.851,2128.935,2010.83,,887.851,7.9551,0.0848605,8.48605,10.5312
890.009,165.445,168.416,,890.009,2174.289,2085.22,,890.009,7.60915,0.0807664,8.07664,9.59379
892.168,172.455,168.118,,892.168,2167.414,2133.41,,892.168,7.95672,0.0788025,7.88025,8.89874
894.328,176.569,171.484,,894.328,2119.476,2141.3,,894.328,8.33079,0.0800844,8.00844,8.4469
896.489,185.66,176.162,,896.489,2026.271,2108.09,,896.489,9.16264,0.0835646,8.35646,8.22167
898.651,189.117,182.095,,898.651,1918.326,2037.89,,898.651,9.85844,0.0893546,8.93546,8.22598
900.815,194.521,186.749,,900.815,1785.282,1942.55,,900.815,10.8958,0.0961358,9.61358,8.43388
902.979,203.289,193.642,,902.979,1649.08,1825.48,,902.979,12.3274,0.106077,10.6077,8.8768
905.144,205.968,199.49,,905.144,1520.884,1700.28,,905.144,13.5427,0.117328,11.7328,9.53684
907.31,207.817,202.969,,907.31,1390.411,1573.02,,907.31,14.9464,0.129031,12.9031,10.377
909.477,207.069,205.281,,909.477,1272.518,1446.96,,909.477,16.2724,0.14187,14.187,11.3667
911.644,206.031,206.117,,911.644,1161.269,1326.88,,911.644,17.7419,0.155339,15.5339,12.4917
913.813,202.266,205.482,,913.813,1069.772,1215.71,,913.813,18.9074,0.169022,16.9022,13.724
915.983,186.429,199.797,,915.983,988.66,1118.11,,915.983,18.8567,0.178691,17.8691,14.9624
918.154,184.409,191.507,,918.154,909.367,1029.4,,918.154,20.2788,0.186037,18.6037,16.1257
920.326,168.299,184.254,,920.326,840.982,947.826,,920.326,20.0122,0.194397,19.4397,17.2185
922.499,150.461,170.725,,922.499,785.234,877.373,,922.499,19.1613,0.194587,19.4587,18.113
924.673,132.895,155.57,,924.673,726.212,813.978,,924.673,18.2998,0.191124,19.1124,18.6956
926.847,117.511,138.922,,926.847,673.645,755.023,,926.847,17.4441,0.183997,18.3997,18.9323
929.023,113.944,126.663,,929.023,616.077,698.139,,929.023,18.4951,0.18143,18.143,18.9326
931.2,99.105,115.923,,931.2,561.781,640.213,,931.2,17.6412,0.18107,18.107,18.77
933.377,86.902,104.025,,933.377,520.304,588.161,,933.377,16.7022,0.176865,17.6865,18.4486
935.556,76.88,93.0205,,935.556,473.28,540.136,,935.556,16.2441,0.172217,17.2217,18.0765
937.736,76.221,84.3119,,937.736,444.62,497.338,,937.736,17.143,0.169527,16.9527,17.7251
939.916,75.29,80.5993,,939.916,412.505,461.97,,939.916,18.2519,0.174469,17.4469,17.5423
942.098,77.994,77.3284,,942.098,382.026,427.176,,942.098,20.4159,0.181022,18.1022,17.4883
944.28,81.425,78.4919,,944.28,357.638,396.484,,944.28,22.7674,0.19797,19.797,17.7405
946.464,75.038,78.1884,,946.464,338.612,371.382,,946.464,22.1605,0.210534,21.0534,18.362
948.648,75.56,76.6691,,948.648,323.405,350.131,,948.648,23.3639,0.218973,21.8973,19.2382
950.834,75.626,75.9686,,950.834,304.379,331.288,,950.834,24.846,0.229313,22.9313,20.282
953.02,76.238,76.5016,,953.02,291.17,312.93,,953.02,26.1833,0.244469,24.4469,21.4865
955.207,76.758,76.9884,,955.207,282.78,299.394,,955.207,27.1441,0.257147,25.7147,22.7344
957.396,79.46,78.5578,,957.396,274.843,289.202,,957.396,28.9111,0.271637,27.1637,23.9263
959.585,88.616,82.4567,,959.585,262.27,278.682,,959.585,33.7881,0.295881,29.5881,25.313
961.775,98.862,89.1893,,961.775,258.151,268.507,,961.775,38.2962,0.332167,33.2167,27.1637
963.966,102.926,94.542,,963.966,254.941,261.316,,963.966,40.3725,0.361791,36.1791,29.375
966.159,110.445,99.5759,,966.159,249.184,255.731,,966.159,44.3227,0.389377,38.9377,31.8542
968.352,123.417,107.612,,968.352,245.245,251.243,,968.352,50.324,0.428319,42.8319,34.7545
970.546,133.934,118.903,,970.546,243.579,247.699,,970.546,54.9859,0.480028,48.0028,38.247
972.741,147.36,130.421,,972.741,247.457,246.404,,972.741,59.5497,0.529296,52.9296,42.1143
974.937,160.604,142.646,,974.937,250.154,248.187,,974.937,64.2021,0.574753,57.4753,46.2138
977.134,182.483,156.378,,977.134,255.304,251.319,,977.134,71.4767,0.622231,62.2231,50.6534
979.332,201.908,175.388,,979.332,259.999,254.524,,979.332,77.6572,0.689083,68.9083,55.6461
981.531,221.423,194.2,,981.531,265.33,259.407,,981.531,83.4519,0.74863,74.863,60.974
983.731,239.483,212.568,,983.731,271.115,263.446,,983.731,88.3326,0.806872,80.6872,66.4443
985.932,256.179,229.811,,985.932,279.717,269.85,,985.932,91.5851,0.851624,85.1624,71.962
988.134,275.874,248.789,,988.134,288.592,276.398,,988.134,95.5931,0.900108,90.0108,77.4925
990.336,292.023,267.832,,990.336,304.103,287.506,,990.336,96.0277,0.931571,93.1571,82.6871
992.54,302.899,283.371,,992.54,312.703,299.062,,992.54,96.8648,0.947531,94.7531,87.0171
994.745,320.138,297.964,,994.745,332.031,310.388,,994.745,96.4181,0.959971,95.9971,90.4986
996.951,335.649,313.994,,996.951,345.812,325.534,,996.951,97.0611,0.964551,96.4551,93.0735
999.157,346.432,327.9,,999.157,349.411,336.816,,999.157,99.1474,0.973528,97.3528,94.9184
1001.365,358.488,340.908,,1001.365,361.555,346.187,,1001.365,99.1517,0.98475,98.475,96.1613
1003.573,372.361,353.402,,1003.573,380.062,358.838,,1003.573,97.9738,0.984852,98.4852,97.0303
1005.783,390.051,367.447,,1005.783,394.568,373.644,,1005.783,98.8552,0.983414,98.3414,97.5763
1007.993,410.923,384.204,,1007.993,413.801,388.537,,1007.993,99.3045,0.98885,98.885,98.0527
1010.205,444.794,406.218,,1010.205,445.124,410.293,,1010.205,99.9259,0.990068,99.0068,98.4874
1012.417,482.028,435.43,,1012.417,471.173,434.633,,1012.417,102.304,1.00183,100.183,98.8595
1014.631,522.08,470.09,,1014.631,504.404,462.228,,1014.631,103.504,1.01701,101.701,99.3872
1016.845,568.585,509.42,,1016.845,547.543,494.746,,1016.845,103.843,1.02966,102.966,100.202
1019.06,602.181,548.887,,1019.06,593.226,534.401,,1019.06,101.51,1.02711,102.711,101.018
1021.277,647.23,587.479,,1021.277,641.091,577.026,,1021.277,100.958,1.01811,101.811,101.603
1023.494,693.915,631.389,,1023.494,672.682,618.95,,1023.494,103.156,1.0201,102.01,102.052
1025.712,727.509,671.643,,1025.712,700.636,653.562,,1025.712,103.836,1.02767,102.767,102.375
1027.931,760.283,709.254,,1027.931,723.589,684.128,,1027.931,105.071,1.03673,103.673,102.584
1030.151,777.421,740.72,,1030.151,746.36,710.127,,1030.151,104.162,1.04308,104.308,102.809
1032.372,792.103,763.277,,1032.372,762.675,733.866,,1032.372,103.859,1.04008,104.008,103.15
1034.594,804.511,781.868,,1034.594,772.535,752.162,,1034.594,104.139,1.03949,103.949,103.572
1036.817,813.828,796.954,,1036.817,784.121,766.641,,1036.817,103.789,1.03954,103.954,103.875
1039.041,823.053,809,,1039.041,784.706,776.29,,1039.041,104.887,1.04214,104.214,104.059
1041.266,819.368,814.375,,1041.266,789.018,782.075,,1041.266,103.847,1.0413,104.13,104.094
1043.492,816.955,815.346,,1043.492,792.237,785.442,,1043.492,103.12,1.03807,103.807,104.032
1045.718,817.45,816.124,,1045.718,793.002,788.197,,1045.718,103.083,1.03543,103.543,103.956
1047.946,816.217,816.896,,1047.946,792.401,789.724,,1047.946,103.006,1.03441,103.441,103.852
1050.175,818.983,817.123,,1050.175,793.436,791.619,,1050.175,103.22,1.03222,103.222,103.711
1052.405,814.748,816.808,,1052.405,792.47,791.89,,1052.405,102.811,1.03147,103.147,103.504
1054.635,805.239,812.597,,1054.635,785.776,789.36,,1054.635,102.477,1.02944,102.944,103.319
1056.867,800.548,807.043,,1056.867,787.626,786.615,,1056.867,101.641,1.02597,102.597,103.136
1059.099,786.31,799.244,,1059.099,787.384,785.817,,1059.099,99.8636,1.01709,101.709,102.859
1061.333,775.98,789.249,,1061.333,773.686,781.92,,1061.333,100.297,1.00937,100.937,102.432
1063.567,772.649,782.816,,1063.567,766.806,775.044,,1063.567,100.762,1.01003,101.003,102.003
1065.802,764.59,776.339,,1065.802,755.742,768.407,,1065.802,101.171,1.01032,101.032,101.609
1068.039,754.439,767.208,,1068.039,747.405,760.279,,1068.039,100.941,1.00911,100.911,101.255
1070.276,749.923,759.676,,1070.276,743.794,753.164,,1070.276,100.824,1.00865,100.865,100.997
1072.514,734.133,750.878,,1072.514,733.181,745.682,,1072.514,100.13,1.00697,100.697,100.909
1074.753,725.16,740.417,,1074.753,730.386,738.361,,1074.753,99.2845,1.00278,100.278,100.824
1076.993,718.277,731.523,,1076.993,723.134,732.281,,1076.993,99.3283,0.998964,99.8964,100.643
1079.234,708.029,722.074,,1079.234,719.154,726.24,,1079.234,98.453,0.994264,99.4264,100.378
1081.476,702.325,712.369,,1081.476,701.537,717.852,,1081.476,100.112,0.992362,99.2362,100.063
1083.719,692.439,704.877,,1083.719,693.645,707.543,,1083.719,99.8261,0.996232,99.6232,99.8148
1085.963,677.096,694.875,,1085.963,682.57,697.588,,1085.963,99.198,0.996112,99.6112,99.6394
1088.208,674.116,685.425,,1088.208,679.494,689.411,,1088.208,99.2085,0.994218,99.4218,99.5171
1090.454,663.316,677.542,,1090.454,672.417,683.648,,1090.454,98.6465,0.991067,99.1067,99.4161
1092.772,662.243,670.029,,1092.772,662.701,676.076,,1092.772,99.9309,0.991055,99.1055,99.3782
1094.985,652.168,663.648,,1094.985,655.712,667.492,,1094.985,99.4595,0.994241,99.4241,99.3586
1097.197,645,657.262,,1097.197,655.176,661.371,,1097.197,98.4468,0.993787,99.3787,99.3066
1099.409,632.559,648.11,,1099.409,648.729,656.29,,1099.409,97.5074,0.987536,98.7536,99.2004
1101.622,622.298,637.827,,1101.622,643.735,651.077,,1101.622,96.6699,0.979648,97.9648,98.9916
1103.834,616.672,628.956,,1103.834,630.558,644.368,,1103.834,97.7978,0.976083,97.6083,98.732
1106.047,608.499,621.287,,1106.047,617.47,634.861,,1106.047,98.5471,0.978619,97.8619,98.446
1108.259,599.143,612.737,,1108.259,604.108,622.5,,1108.259,99.1781,0.984317,98.4317,98.2262
1110.472,595.785,604.704,,1110.472,594.744,610.059,,1110.472,100.175,0.991222,99.1222,98.1824
1112.684,581.426,596.286,,1112.684,588.197,601.125,,1112.684,98.8489,0.991949,99.1949,98.3374
1114.897,571.429,586.081,,1114.897,576.102,592.421,,1114.897,99.1889,0.989298,98.9298,98.5693
1117.109,557.521,575.465,,1117.109,572.643,583.804,,1117.109,97.3593,0.985716,98.5716,98.7757
1119.321,544.43,562.967,,1119.321,558.727,574.676,,1119.321,97.4411,0.979625,97.9625,98.7821
1121.534,539.974,552.112,,1121.534,542.991,561.379,,1121.534,99.4444,0.983492,98.3492,98.6811
1123.746,536.97,545.696,,1123.746,534.618,550.187,,1123.746,100.44,0.991836,99.1836,98.6318
1125.959,517.693,536.062,,1125.959,521.969,539.044,,1125.959,99.1808,0.994468,99.4468,98.7068
1128.171,511.141,524.146,,1128.171,512.41,527.379,,1128.171,99.7523,0.993871,99.3871,98.8032
1130.384,495.223,513.546,,1130.384,505.941,517.299,,1130.384,97.8816,0.992745,99.2745,99.0127
1132.596,483.486,500.143,,1132.596,492.015,507.577,,1132.596,98.2665,0.985354,98.5354,99.1329
1134.809,472.748,488.439,,1134.809,476.541,494.825,,1134.809,99.2041,0.987094,98.7094,99.1164
1137.021,460.007,476.578,,1137.021,467.339,482.482,,1137.021,98.4311,0.987762,98.7762,99.0011
1139.233,450.174,465.386,,1139.233,447.226,469.085,,1139.233,100.659,0.992113,99.2113,98.9316
1141.446,430.885,452.57,,1141.446,436.474,453.839,,1141.446,98.7195,0.997203,99.7203,98.9655
1143.658,418.958,438.067,,1143.658,427.176,442.761,,1143.658,98.0762,0.989398,98.9398,99.021
1145.871,406.756,424.576,,1145.871,417.603,433.352,,1145.871,97.4026,0.979748,97.9748,98.9662
1148.083,398.371,413.147,,1148.083,406.664,423.006,,1148.083,97.9607,0.976691,97.6691,98.7707
1150.296,382.166,401.695,,1150.296,397.997,412.288,,1150.296,96.0223,0.974308,97.4308,98.5299
1152.508,372.778,388.698,,1152.508,378.873,399.405,,1152.508,98.3913,0.97319,97.319,98.0945
1154.721,361.843,377.331,,1154.721,371.929,386.306,,1154.721,97.2882,0.976768,97.6768,97.7612
1156.933,353.815,366.743,,1156.933,362.529,377.74,,1156.933,97.5963,0.970888,97.0888,97.5166
1159.145,337.876,356.07,,1159.145,345.945,365.105,,1159.145,97.6675,0.975256,97.5256,97.4354
1161.358,326.754,343.116,,1161.358,337.269,352.556,,1161.358,96.8823,0.973223,97.3223,97.3889
1163.57,314.267,331.822,,1163.57,331.501,343.465,,1163.57,94.8012,0.966101,96.6101,97.3195
1165.783,305.779,320.516,,1165.783,320.367,334.68,,1165.783,95.4465,0.957677,95.7677,97.0291
1167.995,297.834,311.22,,1167.995,314.595,325.575,,1167.995,94.6722,0.95591,95.591,96.6933
1170.208,284.07,300.659,,1170.208,309.912,318.454,,1170.208,91.6615,0.944122,94.4122,96.2362
1172.42,277.668,290.932,,1172.42,302.319,311.822,,1172.42,91.846,0.933009,93.3009,95.4894
1174.633,264.083,281.709,,1174.633,293.452,303.95,,1174.633,89.9919,0.926827,92.6827,94.6987
1176.845,261.042,271.361,,1176.845,287.311,296.555,,1176.845,90.8569,0.915047,91.5047,93.8517
1179.057,256.09,265.353,,1179.057,269.168,287.512,,1179.057,95.1413,0.922927,92.2927,93.1243
1181.27,241.684,257.001,,1181.27,259.57,275.388,,1181.27,93.1094,0.933233,93.3233,92.7371
1183.482,237.276,246.837,,1183.482,258.334,266.759,,1183.482,91.8485,0.925315,92.5315,92.5428
1185.695,228.867,239.957,,1185.695,253.916,260.707,,1185.695,90.1349,0.920406,92.0406,92.3647
1187.907,221.184,231.864,,1187.907,251.678,256.108,,1187.907,87.8837,0.905337,90.5337,92.1656
1190.12,210.501,223.376,,1190.12,240.621,251.416,,1190.12,87.4824,0.88847,88.847,91.7223
1192.332,205.726,215.666,,1192.332,233.382,244.964,,1192.332,88.1499,0.880397,88.0397,90.8485
1194.545,197.587,208.066,,1194.545,223.506,236.57,,1194.545,88.4034,0.879511,87.9511,89.8929
1196.757,194.72,201.194,,1196.757,220.356,227.657,,1196.757,88.3661,0.883761,88.3761,89.127
1198.969,192.399,198.321,,1198.969,222.843,224.322,,1198.969,86.3384,0.884092,88.4092,88.5605
1201.182,178.168,191.888,,1201.182,222.693,224.009,,1201.182,80.0061,0.856611,85.6611,87.9742
1203.394,174.391,183.542,,1203.394,227.543,224.733,,1203.394,76.6409,0.816712,81.6712,86.8946
1205.607,171.615,177.912,,1205.607,221.393,224.578,,1205.607,77.516,0.792206,79.2206,85.3277
1207.819,155.657,170.527,,1207.819,215.152,219.749,,1207.819,72.3475,0.776009,77.6009,83.4542
1210.032,151.427,160.846,,1210.032,210.821,215.869,,1210.032,71.8273,0.74511,74.511,80.9599
1212.244,148.289,155.785,,1212.244,206.855,212.013,,1212.244,71.6874,0.734791,73.4791,78.3575
1214.456,141.242,150.483,,1214.456,197.525,207.03,,1214.456,71.5059,0.726862,72.6862,76.2653
1216.669,134.469,145.043,,1216.669,185.106,198.968,,1216.669,72.6443,0.728976,72.8976,74.8212
1218.881,124.242,136.838,,1218.881,171.779,188.373,,1218.881,72.3267,0.726421,72.6421,73.6843
1221.094,118.654,128.695,,1221.094,151.726,174.676,,1221.094,78.2028,0.736764,73.6764,73.121
1223.306,114.703,122.628,,1223.306,139.766,159.438,,1223.306,82.0679,0.769124,76.9124,73.4988
1225.519,107.027,116.425,,1225.519,124.081,145.808,,1225.519,86.2558,0.79848,79.848,74.6177
1227.731,100.262,109.028,,1227.731,117.488,132.501,,1227.731,85.3381,0.822851,82.2851,76.3089
1229.944,93.135,102.902,,1229.944,112.353,124.089,,1229.944,82.895,0.829262,82.9262,78.2143
1232.156,91.193,97.1871,,1232.156,97.22,114.347,,1232.156,93.8007,0.84993,84.993,80.3535
1234.368,84.981,93.4117,,1234.368,97.727,105.743,,1234.368,86.9575,0.883386,88.3386,82.7519
1236.581,75.408,86.5322,,1236.581,95.509,101.209,,1236.581,78.9538,0.854989,85.4989,84.3423
1238.793,71.93,79.6382,,1238.793,88.568,95.5963,,1238.793,81.2144,0.833067,83.3067,84.8222
1241.006,73.364,75.4985,,1241.006,82.539,89.3296,,1241.006,88.884,0.845168,84.5168,84.9983
1242.586,75.143,74.2769,,1242.586,79.058,86.0609,,1242.586,95.0479,0.863074,86.3074,