File: public_html/data/backup/plexiglas_6C77.csv
wavelength_nm,intensity,intensity_smoothed,,wavelength_nm2,intensity_i0,intensity_i0_smoothed,,wavelength_nm3,,transmission,transmission_perc,transmission_perc_smoothed
173.232,29.315,#N/A,,173.232,26.786,#N/A,,173.232,109.441,#N/A,#N/A,#N/A
175.084,34.996,30.1027,,175.084,38.604,29.6984,,175.084,90.6538,1.01361,101.361,#N/A
176.935,32.541,32.2854,,176.935,36.058,34.7287,,176.935,90.2463,0.929646,92.9646,#N/A
178.787,33.359,32.0353,,178.787,36.057,35.7311,,178.787,92.5174,0.896566,89.6566,#N/A
180.639,32.631,33.0494,,180.639,33.693,36.2498,,180.639,96.848,0.911714,91.1714,#N/A
182.491,32.084,32.4734,,182.491,35.146,34.8517,,182.491,91.2878,0.931761,93.1761,#N/A
184.342,36.993,33.3676,,184.342,38.873,36.5629,,184.342,95.1637,0.912608,91.2608,93.0085
186.194,37.356,35.7921,,186.194,37.236,37.7408,,186.194,100.322,0.948365,94.8365,92.3865
188.046,33.537,35.6628,,188.046,41.599,37.9195,,188.046,80.6197,0.940488,94.0488,92.9844
189.897,32.354,34.8598,,189.897,38.507,39.5136,,189.897,84.0211,0.882223,88.2223,92.8388
191.749,30.899,34.1641,,191.749,31.688,37.3555,,191.749,97.5101,0.914568,91.4568,92.3137
193.601,34.717,34.6008,,193.601,33.505,35.5764,,193.601,103.617,0.972577,97.2577,92.9348
195.453,32.08,33.9787,,195.453,33.504,35.1224,,195.453,95.7498,0.967437,96.7437,93.7574
197.304,32.079,32.4095,,197.304,32.14,34.8236,,197.304,99.8102,0.930675,93.0675,93.4343
199.156,29.714,30.781,,199.156,31.503,33.8949,,199.156,94.3212,0.908131,90.8131,93.5756
201.008,34.441,31.5665,,201.008,34.684,33.8897,,201.008,99.2994,0.931447,93.1447,94.1803
202.86,32.258,32.9448,,202.86,34.683,34.1697,,202.86,93.0081,0.964152,96.4152,94.4535
204.711,37.167,34.0935,,204.711,35.227,35.1271,,204.711,105.507,0.970574,97.0574,94.202
206.563,35.893,35.7987,,206.563,32.136,34.3423,,206.563,111.691,1.04241,104.241,95.5373
208.415,33.984,35.1828,,208.415,36.68,34.8728,,208.415,92.6499,1.00889,100.889,97.3111
210.267,36.437,35.5286,,210.267,34.316,35.8565,,210.267,106.181,0.990855,99.0855,98.5321
212.118,32.891,35.0452,,212.118,32.679,35.2305,,212.118,100.649,0.994742,99.4742,99.459
213.97,31.527,33.275,,213.97,29.859,33.8215,,213.97,105.586,0.983843,98.3843,99.8898
215.822,27.98,31.927,,215.822,29.859,31.0561,,215.822,93.7071,1.02804,102.804,100.207
217.673,31.616,30.4461,,217.673,35.858,33.0981,,217.673,88.17,0.919877,91.9877,98.7072
219.525,37.343,33.0029,,219.525,29.402,33.5853,,219.525,127.008,0.982658,98.2658,98.0496
221.377,35.433,34.8746,,221.377,33.31,32.2544,,221.377,106.373,1.08123,108.123,99.4917
223.229,33.614,34.4937,,223.229,37.764,34.2879,,223.229,89.0107,1.006,100.6,100.445
225.08,34.886,34.3946,,225.08,38.763,35.4599,,225.08,89.9982,0.969957,96.9957,99.967
226.932,35.339,35.125,,226.932,38.217,37.2011,,226.932,92.4693,0.944194,94.4194,99.2541
228.784,32.52,35.5954,,228.784,32.761,36.0345,,228.784,99.2644,0.987815,98.7815,99.9872
230.636,26.974,33.387,,230.636,29.397,34.1797,,230.636,91.7577,0.97681,97.681,98.7652
232.487,34.882,32.0204,,232.487,33.214,33.1807,,232.487,105.022,0.965029,96.5029,96.9901
234.339,40.427,36.0506,,234.339,34.304,34.4358,,234.339,117.849,1.04689,104.689,97.6504
236.191,37.517,38.3216,,236.191,27.485,31.4748,,236.191,136.5,1.21753,121.753,101.553
238.043,40.698,38.9722,,238.043,35.848,30.3274,,238.043,113.529,1.28505,128.505,107.672
239.894,44.607,40.8241,,239.894,44.574,35.5211,,239.894,100.074,1.14929,114.929,111.518
241.746,44.878,43.6089,,241.746,53.482,42.8589,,241.746,83.9123,1.0175,101.75,113.188
243.598,46.968,44.9949,,243.598,62.208,50.6793,,243.598,75.5015,0.887835,88.7835,111.717
245.449,52.422,47.6303,,245.449,62.662,56.7962,,245.449,83.6584,0.838619,83.8619,106.653
247.301,54.33,50.8275,,247.301,66.025,60.0306,,247.301,82.287,0.846692,84.6692,98.8244
249.153,57.239,54.4453,,249.153,75.569,66.0606,,249.153,75.744,0.824172,82.4172,91.353
251.005,60.329,57.1764,,251.005,79.023,71.749,,251.005,76.3436,0.796895,79.6895,85.9063
252.856,60.055,59.3613,,252.856,77.567,74.9429,,252.856,77.4234,0.792087,79.2087,82.7667
254.681,62.691,59.6434,,254.681,79.021,76.3829,,254.681,79.3346,0.780847,78.0847,81.4309
256.513,66.963,61.9391,,256.513,83.292,79.0528,,256.513,80.3955,0.783515,78.3515,80.2479
258.347,69.598,65.5942,,258.347,84.019,82.1099,,258.347,82.836,0.798858,79.8858,79.3032
260.181,71.597,68.8845,,260.181,84.472,83.6374,,260.181,84.7583,0.823609,82.3609,79.3756
262.017,74.869,71.1865,,262.017,81.108,83.7727,,262.017,92.3078,0.849758,84.9758,80.2205
263.853,75.323,73.1896,,263.853,85.197,83.7059,,263.853,88.4104,0.874367,87.4367,81.7974
265.691,75.504,74.0382,,265.691,83.469,84.7439,,265.691,90.4575,0.87367,87.367,83.5165
267.53,71.866,73.567,,267.53,78.923,83.0577,,267.53,91.0584,0.885733,88.5733,85.3201
269.369,71.32,72.128,,269.369,82.013,82.1681,,269.369,86.9618,0.877811,87.7811,86.6915
271.21,70.137,71.5053,,271.21,81.648,82.5729,,271.21,85.9017,0.865965,86.5965,87.4179
273.052,70.409,69.7395,,273.052,78.374,81.0571,,273.052,89.8372,0.860374,86.0374,87.3409
274.895,71.863,70.229,,274.895,79.009,79.5774,,274.895,90.9555,0.882524,88.2524,87.4101
276.739,69.225,70.0654,,276.739,83.554,81.013,,276.739,82.8506,0.864866,86.4866,87.2837
278.584,67.952,69.6468,,278.584,79.462,81.556,,278.584,85.5151,0.853975,85.3975,86.6878
280.431,64.587,67.9788,,280.431,84.461,81.9941,,280.431,76.4696,0.829069,82.9069,86.0764
282.278,62.95,66.0516,,282.278,87.55,84.3235,,282.278,71.9018,0.783312,78.3312,84.8991
284.126,60.494,64.2139,,284.126,87.549,85.4577,,284.126,69.0973,0.751413,75.1413,82.8632
285.976,69.675,65.4769,,285.976,89.821,87.2231,,285.976,77.5709,0.750683,75.0683,80.3818
287.826,72.129,68.2607,,287.826,86.82,87.5194,,287.826,83.0788,0.77995,77.995,78.8013
289.678,74.037,71.0031,,289.678,88.001,87.5632,,289.678,84.132,0.810878,81.0878,77.907
291.531,69.036,70.9887,,291.531,82.999,86.9141,,291.531,83.1769,0.816769,81.6769,77.9631
293.385,72.58,70.324,,293.385,86.544,86.0818,,293.385,83.8649,0.816944,81.6944,78.8521
295.239,75.125,72.0128,,295.239,83.452,86.6223,,295.239,90.0218,0.831342,83.1342,80.33
297.095,70.488,73.0928,,297.095,80.632,83.1922,,297.095,87.4194,0.878601,87.8601,82.2704
298.952,68.941,71.093,,298.952,84.904,83.8708,,298.952,81.1988,0.847648,84.7648,83.5197
300.81,67.395,69.7581,,300.81,81.721,82.882,,300.81,82.4696,0.841655,84.1655,84.0603
302.669,69.484,69.1981,,302.669,90.811,84.7768,,302.669,76.515,0.816239,81.6239,84.2556
304.53,71.574,70.0517,,304.53,88.537,86.7993,,304.53,80.8408,0.807053,80.7053,84.0023
306.391,70.119,70.7828,,306.391,85.536,86.9114,,306.391,81.976,0.814425,81.4425,83.2745
308.253,70.209,70.5818,,308.253,82.171,84.5328,,308.253,85.4426,0.834963,83.4963,82.5384
310.117,68.208,69.4751,,310.117,84.624,82.3974,,310.117,80.6012,0.843171,84.3171,82.5208
311.981,67.207,67.7924,,311.981,90.623,85.0406,,311.981,74.1611,0.797177,79.7177,82.0787
313.847,68.115,67.4748,,313.847,85.258,86.5371,,313.847,79.8928,0.779721,77.9721,81.5333
315.713,66.75,67.9564,,315.713,86.621,85.0832,,315.713,77.0598,0.798705,79.8705,81.1826
317.581,71.931,69.1334,,317.581,89.074,85.5077,,317.581,80.7542,0.808505,80.8505,80.7697
319.45,72.566,70.8068,,319.45,86.709,86.1281,,319.45,83.6891,0.82211,82.211,80.2938
321.319,71.747,72.4427,,321.319,85.071,85.8514,,321.319,84.3378,0.843816,84.3816,80.3914
323.19,71.837,71.8279,,323.19,89.525,86.5611,,323.19,80.2424,0.829794,82.9794,81.3186
325.062,69.381,71.6688,,325.062,82.524,87.1706,,325.062,84.0737,0.822168,82.2168,81.879
326.935,68.38,69.6277,,326.935,88.25,86.2735,,326.935,77.4844,0.807058,80.7058,82.1807
328.809,76.015,70.29,,328.809,91.521,87.842,,328.809,83.0574,0.800187,80.0187,81.9142
330.685,78.741,75.0494,,330.685,97.156,91.0015,,330.685,81.0459,0.824705,82.4705,81.7995
332.561,71.558,75.4047,,332.561,89.337,92.2346,,332.561,80.099,0.817531,81.7531,81.4826
334.438,71.921,73.3442,,334.438,91.608,90.0201,,334.438,78.5095,0.814754,81.4754,81.4315
336.316,72.102,73.084,,336.316,91.879,91.5528,,336.316,78.475,0.798271,79.8271,81.097
338.196,72.1,72.6079,,338.196,87.424,90.232,,338.196,82.4716,0.80468,80.468,81.1007
340.076,77.827,73.3251,,340.076,90.422,89.0709,,340.076,86.0709,0.823222,82.3222,81.1352
341.958,71.734,74.4531,,341.958,88.694,88.8436,,341.958,80.8781,0.838025,83.8025,81.3348
343.84,73.097,72.5649,,343.84,88.42,88.2726,,343.84,82.6702,0.822055,82.2055,81.4499
345.724,74.459,73.83,,345.724,94.418,90.3649,,345.724,78.861,0.817021,81.7021,81.7144
347.609,72.01,73.6803,,347.609,94.789,93.2687,,347.609,75.9687,0.789979,78.9979,81.7432
349.495,72.816,73.1809,,349.495,91.155,93.6846,,349.495,79.8815,0.781142,78.1142,81.2509
351.382,78.213,74.793,,351.382,90.863,92.7503,,351.382,86.0779,0.806391,80.6391,80.6447
353.269,75.797,76.0358,,353.269,93.89,92.5566,,353.269,80.7296,0.821506,82.1506,80.4807
355.158,78.214,77.0442,,355.158,91.527,92.7964,,355.158,85.4546,0.830249,83.0249,80.4983
357.048,78.539,77.9937,,357.048,92.684,93.1377,,357.048,84.7385,0.837402,83.7402,81.089
358.94,75.959,77.7904,,358.94,95.218,94.2336,,358.94,79.7738,0.825506,82.5506,81.9147
360.832,79.621,78.1881,,360.832,96.431,95.4034,,360.832,82.5678,0.819553,81.9553,82.4566
362.725,85.899,80.8718,,362.725,93.62,95.0673,,362.725,91.7528,0.850679,85.0679,82.8555
364.619,81.081,83.2782,,364.619,105.359,96.5883,,364.619,76.9569,0.862198,86.2198,83.6799
366.515,81.231,81.8503,,366.515,104.282,101.133,,366.515,77.8955,0.809331,80.9331,83.432
368.411,81.624,81.6243,,368.411,101.47,101.551,,368.411,80.4415,0.803775,80.3775,82.8648
370.308,80.609,81.2161,,370.308,97.975,100.897,,370.308,82.2751,0.80494,80.494,82.5658
372.207,84.695,82.7765,,372.207,105.848,101.347,,372.207,80.0157,0.816763,81.6763,82.3168
374.107,86.449,85.0095,,374.107,105.608,103.386,,374.107,81.8584,0.822256,82.2256,81.4898
376.007,89.197,85.9702,,376.007,106.189,104.33,,376.007,83.9983,0.82402,82.402,81.2251
377.909,90.33,88.3185,,377.909,105.226,104.795,,377.909,85.8438,0.842773,84.2773,81.8234
379.812,87.566,87.9323,,379.812,111.582,106.882,,379.812,78.4768,0.822701,82.2701,82.3495
381.716,91.665,88.0809,,381.716,114.291,109.895,,381.716,80.2032,0.801504,80.1504,82.2346
383.62,92.033,90.0482,,383.62,112.097,112.163,,383.62,82.1012,0.802835,80.2835,81.9557
385.526,90.295,90.0808,,385.526,116.28,112.79,,385.526,77.6531,0.798661,79.8661,81.5843
387.433,94.986,90.6812,,387.433,115.424,114.342,,387.433,82.2931,0.793073,79.3073,80.8666
389.341,100.409,93.9731,,389.341,119.767,115.64,,389.341,83.837,0.812633,81.2633,80.26
391.25,103.565,98.06,,391.25,130.241,120.838,,391.25,79.518,0.811501,81.1501,80.3322
393.161,104.328,100.079,,393.161,141.583,128.167,,393.161,73.6868,0.780847,78.0847,80.1484
395.072,122.006,106.356,,395.072,162.278,140.311,,395.072,75.1833,0.757998,75.7998,79.3809
396.984,136.769,118.179,,396.984,184.699,157.71,,396.984,74.0497,0.749343,74.9343,78.5839
398.897,163.16,134.111,,398.897,227.497,182.636,,398.897,71.7196,0.734308,73.4308,77.4129
400.812,205.394,159.416,,400.812,289.932,221.57,,400.812,70.8421,0.719483,71.9483,75.6401
402.727,266.315,197.88,,402.727,375.612,277.644,,402.727,70.9016,0.71271,71.271,73.9958
404.644,370.63,257.263,,404.644,524.35,364.121,,404.644,70.6837,0.706531,70.6531,72.8591
406.561,536.883,356.805,,406.561,752.631,501.419,,406.561,71.3342,0.71159,71.159,72.0378
408.48,770.715,507.626,,408.48,1090.276,712.968,,408.48,70.6899,0.71199,71.199,71.4615
410.4,1113.387,726.392,,410.4,1576.714,1024.69,,410.4,70.6144,0.708891,70.8891,71.1436
412.32,1612.178,1048.06,,412.32,2292.428,1484.04,,412.32,70.3262,0.706221,70.6221,70.9661
414.242,2304.51,1508.01,,414.242,3303.056,2146.55,,414.242,69.769,0.702529,70.2529,70.8401
416.165,3297.876,2161.7,,416.165,4719.128,3089.8,,416.165,69.8832,0.699623,69.9623,70.6788
418.089,4637.079,3080.67,,418.089,6623.23,4399.73,,418.089,70.0124,0.700196,70.0196,70.4441
420.014,6380.135,4314.35,,420.014,9137.17,6168.31,,420.014,69.8262,0.699438,69.9438,70.2428
421.939,8661.152,5947.21,,421.939,12355.714,8501.15,,421.939,70.0984,0.699577,69.9577,70.0861
423.866,11461.136,8052.49,,423.866,16253.351,11472.2,,423.866,70.5155,0.701915,70.1915,70.017
425.795,14856.794,10669.3,,425.795,20920.267,15116.3,,425.795,71.0163,0.705816,70.5816,70.0889
427.724,18839.547,13846.2,,427.724,26342.847,19491.6,,427.724,71.5167,0.710367,71.0367,70.2632
429.654,23438.273,17596.5,,429.654,32472.644,24593,,429.654,72.1785,0.715512,71.5512,70.5278
431.585,28745.519,21968.2,,431.585,39466.603,30450.9,,431.585,72.835,0.721429,72.1429,70.9135
433.517,34787.753,27007.7,,433.517,47212.176,37095.6,,433.517,73.6839,0.728056,72.8056,71.3992
435.451,41575.718,32764.6,,435.451,57567.013,44916.7,,435.451,72.2214,0.729453,72.9453,71.9091
437.385,48648.454,39170.6,,437.385,64000,53518.3,,437.385,76.0132,0.731909,73.1909,72.328
439.32,54982.675,45787.6,,439.32,64000,58986.7,,439.32,85.9104,0.776236,77.6236,73.245
441.257,59145.52,51775.8,,441.257,64000,61602.1,,441.257,92.4149,0.840487,84.0487,75.2142
443.194,60177.7,56023.6,,443.194,63787.125,62827.3,,443.194,94.3415,0.891708,89.1708,78.1343
445.133,58500.333,57878.6,,445.133,62883.234,63135.6,,445.133,93.0301,0.916734,91.6734,81.5575
447.072,54018.488,57202,,447.072,61142.14,62615.5,,447.072,88.349,0.913543,91.3543,85.11
449.013,46906.545,53815.4,,449.013,56984.331,60958,,449.013,82.3148,0.882828,88.2828,87.862
450.955,38902.386,48169.9,,450.955,48943.691,56974.3,,450.955,79.484,0.845467,84.5467,88.8448
452.897,31602.482,41418,,452.897,40056.044,50478,,452.897,78.8957,0.820515,82.0515,88.1345
454.841,25778.718,34743.3,,454.841,32726.301,43097.4,,454.841,78.7706,0.806157,80.6157,86.3396
456.786,21395.464,28896.7,,456.786,27131.96,36193.8,,456.786,78.8571,0.798389,79.8389,84.1166
458.732,17998.766,24079.5,,458.732,22827.2,30323.6,,458.732,78.8479,0.794085,79.4085,82.094
460.679,15290.259,20190.2,,460.679,19324.818,25488.8,,460.679,79.1224,0.79212,79.212,80.6997
462.627,12968.857,17029.3,,462.627,16380.89,21505.9,,462.627,79.1706,0.791844,79.1844,79.9088
464.576,10968.975,14385.6,,464.576,13857.231,18175.3,,464.576,79.157,0.791492,79.1492,79.4904
466.526,9311.77,12168.3,,466.526,11729.578,15364,,466.526,79.3871,0.791999,79.1999,79.2891
468.477,7939.495,10314.6,,468.477,9995.534,13006.5,,468.477,79.4304,0.793035,79.3035,79.2214
470.429,6872.965,8790.78,,470.429,8656.172,11077,,470.429,79.3996,0.793604,79.3604,79.2305
472.382,6074.604,7578.56,,472.382,7635.598,9541.11,,472.382,79.5564,0.794307,79.4307,79.2708
474.336,5457.865,6628.41,,474.336,6854.628,8338.67,,474.336,79.6231,0.794901,79.4901,79.3286
476.292,4975.048,5887.95,,476.292,6260.377,7405.36,,476.292,79.4688,0.795093,79.5093,79.3933
478.248,4612.274,5315.05,,478.248,5803.889,6686.65,,478.248,79.4687,0.794875,79.4875,79.4407
480.205,4340.994,4876.25,,480.205,5461.718,6135.55,,480.205,79.4804,0.794753,79.4753,79.4682
482.164,4163.178,4547.14,,482.164,5237.861,5720.76,,482.164,79.4824,0.794849,79.4849,79.4868
484.123,4102.328,4326.57,,484.123,5160.507,5444.05,,484.123,79.4947,0.794734,79.4734,79.4901
486.083,4157.344,4220.37,,486.083,5228.466,5308.26,,486.083,79.5136,0.795058,79.5058,79.4892
488.045,4340.514,4230.67,,488.045,5480.019,5324.94,,488.045,79.2062,0.794501,79.4501,79.4833
490.007,4651.42,4360.72,,490.007,5891.004,5504.92,,490.007,78.958,0.79215,79.215,79.4461
491.971,5103.574,4620.78,,491.971,6468.471,5846.97,,491.971,78.8992,0.790286,79.0286,79.37
493.936,5650.778,5005.71,,493.936,7190.779,6348.99,,493.936,78.5837,0.788426,78.8426,79.2614
495.901,6321.019,5507.72,,495.901,8029.417,6994.04,,495.901,78.7233,0.787488,78.7488,79.1248
497.868,7091.516,6123.73,,497.868,9011.373,7778.88,,497.868,78.6952,0.787225,78.7225,78.981
499.836,7944.522,6841.42,,499.836,10104.749,8696.37,,499.836,78.6217,0.786699,78.6699,78.8548
501.804,8838.081,7643.8,,501.804,11270.159,9726.87,,501.804,78.4202,0.785844,78.5844,78.7571
503.774,9764.728,8502.47,,503.774,12464.423,10834.2,,503.774,78.3408,0.784779,78.4779,78.671
505.745,10741.062,9411.16,,505.745,13673.219,11989.4,,505.745,78.5555,0.784959,78.4959,78.6109
507.717,11712.957,10353.8,,507.717,14872.93,13172.9,,507.717,78.7535,0.785987,78.5987,78.5764
509.69,12653.318,11302.6,,509.69,16056.998,14363.8,,509.69,78.8025,0.78688,78.688,78.5693
511.664,13589.726,12244.7,,511.664,17217.394,15546.2,,511.664,78.9302,0.787637,78.7637,78.5874
513.639,14464.519,13177.8,,513.639,18283.309,16693.9,,513.639,79.1132,0.789379,78.9379,78.6541
515.615,15245.821,14048.8,,515.615,19258.438,17775.9,,515.615,79.1644,0.790328,79.0328,78.7585
517.592,15955.079,14859.9,,517.592,20128.144,18776.6,,517.592,79.2675,0.791404,79.1404,78.869
519.57,16550.981,15585.9,,519.57,20880.749,19677.7,,519.57,79.2643,0.792062,79.2062,78.9736
521.549,17115.478,16232.2,,521.549,21567.103,20481.6,,521.549,79.3592,0.792527,79.2527,79.0724
523.529,17612.495,16821.6,,523.529,22195.328,21213.8,,523.529,79.3523,0.792957,79.2957,79.1573
525.51,17998.767,17336,,525.51,22691.129,21857.8,,525.51,79.3207,0.793126,79.3126,79.218
527.493,18294.565,17760.2,,527.493,23058.875,22393.1,,527.493,79.3385,0.793113,79.3113,79.2616
529.476,18483.806,18090.5,,529.476,23304.066,22803.7,,529.476,79.3158,0.793316,79.3316,79.2903
531.46,18616.921,18329.3,,531.46,23470.938,23114.7,,531.46,79.319,0.792975,79.2975,79.3062
533.446,18690.222,18502.8,,533.446,23511.018,23315.5,,533.446,79.4956,0.793586,79.3586,79.317
535.432,18688.533,18602.7,,535.432,23522.14,23420.3,,535.432,79.4508,0.794299,79.4299,79.3377
537.419,18648.265,18636.9,,537.419,23550.666,23479.6,,537.419,79.1836,0.793748,79.3748,79.3548
539.408,18656.148,18645,,539.408,23514.322,23508.5,,539.408,79.3395,0.793117,79.3117,79.3543
541.397,18616.42,18647.4,,541.397,23421.676,23487.5,,541.397,79.4837,0.793928,79.3928,79.363
543.388,18499.498,18601.1,,543.388,23308.611,23427,,543.388,79.3677,0.794001,79.4001,79.3795
545.379,18438.51,18528.3,,545.379,23191.606,23337.7,,545.379,79.5051,0.793921,79.3921,79.3779
547.372,18369.365,18466.4,,547.372,23067.082,23233,,547.372,79.6345,0.794837,79.4837,79.3843
549.365,18227.589,18378.6,,549.365,22873.453,23102.2,,549.365,79.6888,0.795533,79.5533,79.4222
551.36,18088.904,18265,,551.36,22657.524,22929.7,,551.36,79.8362,0.796568,79.6568,79.4764
553.356,17872.119,18120.6,,553.356,22458.012,22738.3,,553.356,79.5801,0.796921,79.6921,79.5321
555.352,17664.06,17937.4,,555.352,22260.207,22544.8,,555.352,79.3526,0.795635,79.5635,79.5736
557.35,17454.665,17743.5,,557.35,21989.908,22330.1,,557.35,79.3758,0.794601,79.4601,79.5843
559.349,17163.766,17524.3,,559.349,21709.137,22080.9,,559.349,79.0624,0.793639,79.3639,79.5623
561.348,16862.917,17264.5,,561.348,21446.354,21819.4,,561.348,78.6284,0.791247,79.1247,79.4873
563.349,16550.019,16979.3,,563.349,21149.204,21549.7,,563.349,78.2536,0.787911,78.7911,79.3349
565.351,16172.393,16659.3,,565.351,20809.542,21256.4,,565.351,77.7162,0.783729,78.3729,79.1176
567.354,15759.026,16302.3,,567.354,20445.19,20936.2,,567.354,77.0794,0.778665,77.8665,78.835
569.358,15351.655,15917.7,,569.358,20090.264,20589.1,,569.358,76.4134,0.773111,77.3111,78.4652
571.363,14909.186,15511.5,,571.363,19686.427,20228.3,,571.363,75.7333,0.766822,76.6822,78.0102
573.368,14530.783,15096.4,,573.368,19315.428,19846,,573.368,75.2289,0.760677,76.0677,77.4914
575.375,14151.575,14710.6,,575.375,18986.807,19488.9,,575.375,74.5337,0.754821,75.4821,76.9305
577.383,13722.507,14309.6,,577.383,18574.161,19122.9,,577.383,73.8796,0.748296,74.8296,76.3349
579.392,13303.738,13897.9,,579.392,18171.353,18727.8,,579.392,73.2127,0.742099,74.2099,75.7207
581.402,12919.645,13490.1,,581.402,17776.569,18343.2,,581.402,72.6779,0.735425,73.5425,75.0933
583.413,12574.231,13106.8,,583.413,17345.495,17939.5,,583.413,72.4928,0.73061,73.061,74.4831
585.425,12232.546,12742.1,,585.425,16927.19,17522,,585.425,72.2657,0.727205,72.7205,73.9137
587.439,11873.692,12389.6,,587.439,16478.458,17098.9,,587.439,72.0558,0.724588,72.4588,73.4078
589.453,11501.34,12029.1,,589.453,16021.565,16657.7,,589.453,71.7866,0.722136,72.2136,72.9754
591.468,11152.793,11664.8,,591.468,15595.936,16217,,591.468,71.5109,0.719295,71.9295,72.6143
593.484,10817.644,11312.1,,593.484,15135.761,15776.2,,593.484,71.4708,0.717039,71.7039,72.3186
595.501,10463.445,10963.1,,595.501,14661.348,15320.5,,595.501,71.3676,0.715584,71.5584,72.0697
597.519,10090.973,10605.3,,597.519,14208.392,14858.6,,597.519,71.0212,0.713745,71.3745,71.8484
599.539,9708.519,10238.7,,599.539,13742.769,14406.5,,599.539,70.6446,0.710698,71.0698,71.6241
601.559,9322.619,9865.16,,601.559,13250.632,13937.9,,601.559,70.356,0.707792,70.7792,71.3921
603.58,8890.818,9474.05,,603.58,12766.031,13456.8,,603.58,69.6443,0.704034,70.4034,71.1481
605.602,8483.037,9063.72,,605.602,12339.477,12986.6,,605.602,68.7471,0.697931,69.7931,70.8354
607.626,8082.392,8659.06,,607.626,11850.801,12526.1,,607.626,68.2012,0.691283,69.1283,70.424
609.65,7659.62,8250.55,,609.65,11365.108,12046.9,,609.65,67.3959,0.684868,68.4868,69.9362
611.675,7246.163,7837.1,,611.675,10930.839,11580.6,,611.675,66.291,0.676743,67.6743,69.3643
613.702,6848.729,7428.56,,613.702,10480.543,11125.3,,613.702,65.3471,0.667718,66.7718,68.6812
615.729,6460.196,7027.48,,615.729,10058.86,10678.5,,615.729,64.2239,0.658098,65.8098,67.9116
617.757,6089.659,6635.5,,617.757,9626.625,10242.3,,617.757,63.2585,0.647855,64.7855,67.0748
619.787,5728.474,6259.22,,619.787,9178.597,9804.92,,619.787,62.4112,0.638376,63.8376,66.1753
621.817,5407.303,5899.28,,621.817,8739.57,9363.02,,621.817,61.8715,0.630062,63.0062,65.2426
623.849,5115.858,5566.79,,623.849,8378.301,8944.18,,623.849,61.0608,0.622392,62.2392,64.329
625.881,4827.891,5255.59,,625.881,8018.036,8559.97,,625.881,60.2129,0.613973,61.3973,63.4349
627.915,4537.455,4956.41,,627.915,7612.591,8173.49,,627.915,59.6046,0.606401,60.6401,62.5796
629.949,4276.044,4667.05,,629.949,7253.439,7787.88,,629.949,58.952,0.59927,59.927,61.7776
631.985,4072.477,4408.16,,631.985,6920.723,7425.09,,631.985,58.8447,0.593684,59.3684,61.0298
634.021,3884.819,4185.07,,634.021,6588.839,7077.77,,634.021,58.9606,0.591298,59.1298,60.3696
636.059,3691.758,3978.34,,636.059,6255.693,6735.87,,636.059,59.0144,0.590621,59.0621,59.8393
638.098,3509.84,3782.95,,638.098,5940.561,6402.08,,638.098,59.0826,0.590894,59.0894,59.4646
640.137,3347.61,3599.46,,640.137,5647.062,6082.74,,640.137,59.2806,0.59175,59.175,59.2387
642.178,3211.915,3432.67,,642.178,5351.739,5777.91,,642.178,60.0163,0.594101,59.4101,59.1741
644.219,3093.002,3287.83,,644.219,5077.458,5483.36,,644.219,60.9163,0.599601,59.9601,59.2752
646.262,2941.031,3149.51,,646.262,4811.13,5203.37,,646.262,61.1297,0.605282,60.5282,59.5172
648.306,2804.834,3006.48,,648.306,4540.322,4928.5,,648.306,61.7761,0.610019,61.0019,59.855
650.35,2675.915,2871.33,,650.35,4299.885,4664.42,,650.35,62.2322,0.61558,61.558,60.2863
652.396,2540.397,2734.56,,652.396,4069.196,4416.55,,652.396,62.4299,0.619163,61.9163,60.775
654.443,2411.61,2599.28,,654.443,3845.692,4178.94,,654.443,62.7094,0.621994,62.1994,61.2483
656.49,2300.896,2474.28,,656.49,3614.831,3945.61,,656.49,63.6516,0.627095,62.7095,61.6879
658.539,2168.75,2351.72,,658.539,3395.884,3715.16,,658.539,63.8641,0.633006,63.3006,62.1467
660.589,2038.761,2222,,660.589,3212.113,3501.78,,660.589,63.471,0.634533,63.4533,62.5612
662.64,1923.716,2097.94,,662.64,3008.504,3299.99,,662.64,63.9426,0.635741,63.5741,62.9006
664.691,1802.652,1976.57,,664.691,2825.846,3101.62,,664.691,63.7916,0.637271,63.7271,63.2125
666.744,1688.575,1856.92,,666.744,2665.607,2917.05,,666.744,63.3467,0.636574,63.6574,63.4577
668.798,1583.649,1741.93,,668.798,2508.898,2745.46,,668.798,63.1213,0.634479,63.4479,63.5563
670.853,1477.918,1632.27,,670.853,2354.692,2582.3,,670.853,62.7648,0.6321,63.21,63.5342
672.909,1385.08,1527.38,,672.909,2213.672,2427.68,,672.909,62.5693,0.629151,62.9151,63.4435
674.965,1294.854,1429.59,,674.965,2086.494,2283.43,,674.965,62.0588,0.626069,62.6069,63.2623
677.023,1223.611,1341.02,,677.023,1964.424,2148.24,,677.023,62.2885,0.62424,62.424,63.0228
679.082,1141.11,1259.21,,679.082,1847.565,2022.54,,679.082,61.7629,0.622588,62.2588,62.7865
681.142,1069.857,1179.16,,681.142,1737.729,1903.79,,681.142,61.5664,0.619374,61.9374,62.5349
683.203,1006.166,1106.08,,683.203,1629.665,1789.43,,683.203,61.7407,0.61812,61.812,62.296
685.265,945.01,1038.08,,685.265,1520.884,1678.67,,685.265,62.1356,0.618393,61.8393,62.1128
687.327,892.103,975.241,,687.327,1427.089,1572.32,,687.327,62.5121,0.620255,62.0255,62.0122
689.391,851.59,921.183,,689.391,1342.555,1474.85,,689.391,63.4305,0.624597,62.4597,62.0027
691.456,800.348,872.142,,691.456,1266.909,1386.44,,691.456,63.1733,0.629052,62.9052,62.1319
693.522,763.932,824.769,,693.522,1181.382,1302.62,,693.522,64.6643,0.63316,63.316,62.379
695.589,726.809,783.969,,695.589,1099.399,1217.94,,695.589,66.1097,0.643684,64.3684,62.8038
697.657,688.867,745.233,,697.657,1034.453,1139.18,,697.657,66.5924,0.654186,65.4186,63.4178
699.726,657.491,707.276,,699.726,971.408,1066.88,,699.726,67.6843,0.662936,66.2936,64.1494
701.796,628.068,675,,701.796,917.503,1001.66,,701.796,68.4541,0.67388,67.388,64.98
703.867,592.901,641.338,,703.867,861.064,943.417,,703.867,68.8568,0.679803,67.9803,65.8882
705.939,567.334,609.367,,705.939,804.537,885.41,,705.939,70.5168,0.688232,68.8232,66.7923
708.012,543.274,581.219,,708.012,759.323,831.585,,708.012,71.5472,0.698929,69.8929,67.6882
710.085,525,556.126,,710.085,719.139,783.449,,710.085,73.004,0.709843,70.9843,68.6079
712.16,499.537,533.181,,712.16,670.14,738.668,,712.16,74.5422,0.721814,72.1814,69.5675
714.236,474.768,509.438,,714.236,626.682,690.974,,714.236,75.759,0.737275,73.7275,70.6296
716.313,445.766,483.62,,716.313,586.621,647.561,,716.313,75.9888,0.746834,74.6834,71.7998
718.391,429.993,460.056,,718.391,553.42,606.872,,718.391,77.6974,0.758076,75.8076,72.9626
720.47,409.394,440.395,,720.47,515.553,569.744,,720.47,79.4087,0.77297,77.297,74.1936
722.55,394.809,421.375,,722.55,489.289,534.375,,722.55,80.6903,0.788539,78.8539,75.5028
724.631,379.093,402.942,,724.631,456.046,503.092,,724.631,83.126,0.800932,80.0932,76.8097
726.713,363.651,386.097,,726.713,427.384,471.345,,726.713,85.0876,0.819138,81.9138,78.1669
728.796,341.433,368.837,,728.796,406.484,444.036,,728.796,83.9967,0.830645,83.0645,79.6325
730.88,319.41,349.022,,730.88,378.822,417.772,,730.88,84.3166,0.835438,83.5438,80.9543
732.965,311.295,331.628,,732.965,361.79,392.676,,732.965,86.043,0.844533,84.4533,82.1242
735.051,305.816,320.176,,735.051,344.187,371.911,,735.051,88.8517,0.860895,86.0895,83.2951
737.138,285.149,307.533,,737.138,327.822,352.608,,737.138,86.9829,0.872168,87.2168,84.4568
739.226,269.938,292.59,,739.226,309.223,335.6,,739.226,87.2956,0.871842,87.1842,85.3284
741.315,260.138,278.35,,741.315,291.064,317.051,,741.315,89.3748,0.877934,87.7934,86.1303
743.405,251.681,266.189,,743.405,276.402,299.691,,743.405,91.0561,0.888211,88.8211,87.0188
745.496,244.564,256.164,,745.496,267.689,285.57,,745.496,91.3612,0.897028,89.7028,87.8568
747.588,234.186,247.585,,747.588,249.668,272.766,,747.588,93.799,0.907682,90.7682,88.574
749.681,224.386,237,,749.681,240.994,258.037,,749.681,93.1085,0.918474,91.8474,89.4141
751.775,218.101,229.526,,751.775,237.1,248.653,,751.775,91.9869,0.923077,92.3077,90.3473
753.87,203.103,219.333,,753.87,228.541,240.406,,753.87,88.8694,0.912346,91.2346,90.9782
755.966,194.585,209.318,,755.966,222.743,232.847,,755.966,87.3585,0.898951,89.8951,91.1636
758.063,193.216,201.892,,758.063,209.387,224.581,,758.063,92.277,0.898969,89.8969,91.0506
760.161,186.852,196.105,,760.161,198.162,212.747,,760.161,94.2925,0.921772,92.1772,91.073
762.26,178.069,188.529,,762.26,193.657,204.219,,762.26,91.9507,0.923172,92.3172,91.1135
764.36,168.202,180.365,,764.36,185.172,196.9,,764.36,90.8355,0.916022,91.6022,91.0975
766.461,166.879,173.767,,766.461,185.015,190.823,,766.461,90.1976,0.910617,91.0617,91.1989
768.562,160.289,169.302,,768.562,177.598,186.254,,768.562,90.2538,0.908985,90.8985,91.4784
770.665,148.612,161.656,,770.665,168.205,179.624,,770.665,88.3517,0.899965,89.9965,91.395
772.769,144.585,153.775,,772.769,160.362,171.275,,772.769,90.1616,0.897825,89.7825,90.9132
774.874,140.032,147.512,,774.874,156.442,163.531,,774.874,89.5105,0.902043,90.2043,90.5517
776.98,136.275,142.548,,776.98,157.256,159.793,,776.98,86.6581,0.89208,89.208,90.2347
779.087,135.552,138.398,,779.087,150.343,156.351,,779.087,90.1618,0.885178,88.5178,89.7646
781.195,133.286,136.069,,781.195,140.336,150.312,,781.195,94.9763,0.905244,90.5244,89.627
783.304,127.375,133.348,,783.304,142.542,145.898,,783.304,89.3596,0.913984,91.3984,89.9199
785.414,124.247,129.727,,785.414,141.88,144.517,,785.414,87.5719,0.897657,89.7657,89.9491
787.525,119.734,126.318,,787.525,138.395,142.375,,787.525,86.5161,0.887224,88.7224,89.7374
789.637,113.599,120.813,,789.637,135.958,140.064,,789.637,83.5545,0.862555,86.2555,89.4112
791.749,118.157,118.938,,791.749,131.269,136.744,,791.749,90.0114,0.869788,86.9788,88.8777
793.863,115.434,118.119,,793.863,129.371,132.71,,793.863,89.2271,0.890055,89.0055,88.3572
795.978,109.335,114.9,,795.978,126.025,130.387,,795.978,86.7566,0.881221,88.1221,87.927
798.094,106.435,110.583,,798.094,126.645,128.492,,798.094,84.042,0.860623,86.0623,87.4492
800.211,104.607,106.875,,800.211,120.724,126.79,,800.211,86.6497,0.842926,84.2926,86.896
802.329,103.68,104.894,,802.329,125.017,126.006,,802.329,82.9327,0.832447,83.2447,86.4255
804.448,98.272,102.263,,804.448,123.93,125.476,,804.448,79.2964,0.814998,81.4998,85.3338
806.567,101.48,100.448,,806.567,122.311,123.382,,806.567,82.9688,0.814117,81.4117,83.9399
808.688,104.368,102.027,,808.688,118.367,122.129,,808.688,88.1732,0.835408,83.5408,83.1308
810.81,101.21,103.039,,810.81,125.329,121.378,,810.81,80.7555,0.848907,84.8907,83.0372
812.933,101.46,102.194,,812.933,123.13,122.682,,812.933,82.4007,0.833002,83.3002,82.9431
815.057,101.687,101.789,,815.057,120.642,120.862,,815.057,84.2882,0.842195,84.2195,83.1283
817.181,106.767,102.296,,817.181,129.685,123.09,,817.181,82.3279,0.831067,83.1067,83.5356
819.307,112.083,105.606,,819.307,137.701,129.382,,819.307,81.3959,0.816234,81.6234,83.4831
821.434,118.218,110.115,,821.434,141.814,134.579,,821.434,83.3613,0.818216,81.8216,82.9635
823.562,124.938,116.037,,823.562,150.847,140.696,,823.562,82.8243,0.824736,82.4736,82.6793
825.69,135.507,123.088,,825.69,162.962,148.914,,825.69,83.1525,0.826575,82.6575,82.5175
827.82,143.991,131.49,,827.82,184.395,161.474,,827.82,78.0883,0.81431,81.431,82.1523
829.951,156.788,141.318,,829.951,200.202,177.52,,829.951,78.3149,0.796065,79.6065,81.6923
832.082,168.728,152.447,,832.082,211.484,192.708,,832.082,79.7829,0.791075,79.1075,81.2305
834.215,166.996,161.612,,834.215,217.983,204.276,,834.215,76.6096,0.791143,79.1143,80.6523
836.349,175.429,166.15,,836.349,222.188,211.359,,836.349,78.9552,0.786105,78.6105,79.9184
838.483,197.649,176.73,,838.483,255.234,223.382,,838.483,77.4384,0.791156,79.1156,79.3033
840.619,227.94,194.565,,840.619,308.756,252.75,,840.619,73.8253,0.769792,76.9792,78.7655
842.755,288.594,226.804,,842.755,374.652,296.792,,842.755,77.0299,0.764184,76.4184,78.2093
844.893,343.105,272.348,,844.893,464.696,359.307,,844.893,73.8343,0.757982,75.7982,77.6188
847.032,411.157,324.752,,847.032,557.035,437.958,,847.032,73.8117,0.741514,74.1514,76.8412
849.171,486.534,388.528,,849.171,661.057,525.484,,849.171,73.5994,0.739371,73.9371,75.9184
851.312,559.595,459.064,,851.312,756.098,619.683,,851.312,74.0109,0.740804,74.0804,75.1167
853.453,633.117,530.034,,853.453,857.691,715.358,,853.453,73.8164,0.740935,74.0935,74.6738
855.596,692.208,599.106,,855.596,945.06,813.531,,855.596,73.2449,0.736426,73.6426,74.1876
857.739,753.475,662.396,,857.739,1009.281,898.409,,857.739,74.6546,0.737299,73.7299,73.9217
859.884,815.269,726.572,,859.884,1085.862,977.02,,859.884,75.0804,0.743661,74.3661,73.9507
862.029,851.927,782.374,,862.029,1134.54,1048.31,,862.029,75.0901,0.746317,74.6317,74.0573
864.175,876.431,825.112,,864.175,1180.224,1104.7,,864.175,74.2597,0.746909,74.6909,74.177
866.323,903.424,858.564,,866.323,1219.693,1154.71,,866.323,74.0698,0.74353,74.353,74.2789
868.471,944.342,892.276,,868.471,1270.779,1200.42,,868.471,74.3121,0.743306,74.3306,74.4173
870.621,993.948,930.935,,870.621,1328.341,1250.62,,870.621,74.8263,0.744381,74.4381,74.4849
872.771,1053.207,978.332,,872.771,1407.639,1310.18,,872.771,74.8208,0.746715,74.6715,74.5062
874.922,1125.087,1035.44,,874.922,1501.233,1383.95,,874.922,74.9442,0.748179,74.8179,74.5141
877.075,1210.584,1103.43,,877.075,1615.768,1472.94,,877.075,74.9231,0.749135,74.9135,74.5772
879.228,1305.472,1182.97,,879.228,1742.694,1578.64,,879.228,74.9111,0.749358,74.9358,74.6933
881.382,1400.208,1271.18,,881.382,1861.847,1694.73,,881.382,75.2053,0.750077,75.0077,74.8139
883.537,1496.25,1363.37,,883.537,1967.351,1809.46,,883.537,76.054,0.753471,75.3471,74.9431
885.694,1573.522,1453.83,,885.694,2063.009,1916.59,,885.694,76.2732,0.758549,75.8549,75.1325
887.851,1626.07,1530.02,,887.851,2128.935,2010.83,,887.851,76.3795,0.760889,76.0889,75.355
890.009,1668.554,1592.82,,890.009,2174.289,2085.22,,890.009,76.7402,0.763859,76.3859,75.6133
892.168,1670.819,1635.09,,892.168,2167.414,2133.41,,892.168,77.0881,0.766422,76.6422,75.9177
894.328,1637.649,1645.83,,894.328,2119.476,2141.3,,894.328,77.2667,0.768616,76.8616,76.2354
896.489,1570.87,1625.74,,896.489,2026.271,2108.09,,896.489,77.5252,0.771191,77.1191,76.5133
898.651,1491.881,1576.59,,898.651,1918.326,2037.89,,898.651,77.7699,0.773636,77.3636,76.7644
900.815,1399.506,1509.48,,900.815,1785.282,1942.55,,900.815,78.3913,0.77706,77.706,77.0279
902.979,1298.3,1426.8,,902.979,1649.08,1825.48,,902.979,78.7287,0.781601,78.1601,77.3171
905.144,1200.32,1334.01,,905.144,1520.884,1700.28,,905.144,78.9225,0.784579,78.4579,77.6311
907.31,1104.97,1240.78,,907.31,1390.411,1573.02,,907.31,79.4707,0.788789,78.8789,77.9645
909.477,1005.394,1144.4,,909.477,1272.518,1446.96,,909.477,79.0082,0.790896,79.0896,78.3117
911.644,913.329,1047.49,,911.644,1161.269,1326.88,,911.644,78.6492,0.789437,78.9437,78.5978
913.813,840.412,957.735,,913.813,1069.772,1215.71,,913.813,78.5599,0.787797,78.7797,78.7763
915.983,779.492,881.284,,915.983,988.66,1118.11,,915.983,78.8433,0.788188,78.8188,78.8682
918.154,721.299,812.731,,918.154,909.367,1029.4,,918.154,79.3188,0.789516,78.9516,78.9217
920.326,668.015,750.859,,920.326,840.982,947.826,,920.326,79.4327,0.792191,79.2191,78.9483
922.499,619.549,694.734,,922.499,785.234,877.373,,922.499,78.8999,0.791834,79.1834,78.9765
924.673,580.265,645.557,,924.673,726.212,813.978,,924.673,79.903,0.79309,79.309,79.0365
926.847,537.526,601.499,,926.847,673.645,755.023,,926.847,79.7937,0.796663,79.6663,79.18
929.023,493.605,556.99,,929.023,616.077,698.139,,929.023,80.1207,0.797822,79.7822,79.348
931.2,457.138,513.966,,931.2,561.781,640.213,,931.2,81.373,0.802804,80.2804,79.5398
933.377,420.217,475.551,,933.377,520.304,588.161,,933.377,80.7637,0.80854,80.854,79.8252
935.556,386.113,437.673,,935.556,473.28,540.136,,935.556,81.5824,0.810302,81.0302,80.1591
937.736,359.282,404.036,,937.736,444.62,497.338,,937.736,80.8065,0.812398,81.2398,80.4889
939.916,333.815,373.787,,939.916,412.505,461.97,,939.916,80.9239,0.809115,80.9115,80.7278
942.098,306.893,346.334,,942.098,382.026,427.176,,942.098,80.333,0.810752,81.0752,80.9308
944.28,288.97,320.292,,944.28,357.638,396.484,,944.28,80.7996,0.807831,80.7831,80.9812
946.464,279.866,300.396,,946.464,338.612,371.382,,946.464,82.6509,0.808859,80.8859,80.9697
948.648,266.216,285.408,,948.648,323.405,350.131,,948.648,82.3166,0.815148,81.5148,81.0049
950.834,249.111,270.621,,950.834,304.379,331.288,,950.834,81.8424,0.816875,81.6875,81.1285
953.02,239.824,257.252,,953.02,291.17,312.93,,953.02,82.3656,0.822078,82.2078,81.3304
955.207,236.264,247.862,,955.207,282.78,299.394,,955.207,83.5505,0.827879,82.7879,81.6501
957.396,227.886,240.498,,957.396,274.843,289.202,,957.396,82.915,0.831591,83.1591,82.1068
959.585,216.871,230.976,,959.585,262.27,278.682,,959.585,82.69,0.828817,82.8817,82.4576
961.775,211.493,222.172,,961.775,258.151,268.507,,961.775,81.9261,0.827432,82.7432,82.6816
963.966,211.296,216.425,,963.966,254.941,261.316,,963.966,82.8804,0.82821,82.821,82.8356
966.159,207.098,212.769,,966.159,249.184,255.731,,966.159,83.1105,0.832001,83.2001,82.9497
968.352,199.082,207.289,,968.352,245.245,251.243,,968.352,81.1768,0.825056,82.5056,82.8888
970.546,197.157,202.233,,970.546,243.579,247.699,,970.546,80.9417,0.816447,81.6447,82.6531
972.741,199.323,200.429,,972.741,247.457,246.404,,972.741,80.5485,0.813413,81.3413,82.379
974.937,200.67,200.662,,974.937,250.154,248.187,,974.937,80.2186,0.80851,80.851,82.0539
977.134,204.198,202.701,,977.134,255.304,251.319,,977.134,79.9823,0.80655,80.655,81.6285
979.332,209.454,204.647,,979.332,259.999,254.524,,979.332,80.5595,0.804039,80.4039,81.149
981.531,217.073,209.322,,981.531,265.33,259.407,,981.531,81.8125,0.806924,80.6924,80.8591
983.731,217.51,213.042,,983.731,271.115,263.446,,983.731,80.2279,0.808672,80.8672,80.7353
985.932,227.037,216.62,,985.932,279.717,269.85,,985.932,81.1667,0.802742,80.2742,80.6138
988.134,240.837,225.067,,988.134,288.592,276.398,,988.134,83.4524,0.814284,81.4284,80.6785
990.336,249.455,235.904,,990.336,304.103,287.506,,990.336,82.0298,0.820516,82.0516,80.9613
992.54,249.345,243.56,,992.54,312.703,299.062,,992.54,79.7386,0.814412,81.4412,81.184
994.745,259.871,248.033,,994.745,332.031,310.388,,994.745,78.2671,0.799106,79.9106,81.0919
996.951,273.215,257.191,,996.951,345.812,325.534,,996.951,79.0068,0.790059,79.0059,80.8289
999.157,278.922,267.599,,999.157,349.411,336.816,,999.157,79.8263,0.794496,79.4496,80.5435
1001.365,289.357,275.861,,1001.365,361.555,346.187,,1001.365,80.0313,0.796854,79.6854,80.1301
1003.573,302.972,286.567,,1003.573,380.062,358.838,,1003.573,79.7165,0.798597,79.8597,79.7327
1005.783,314.224,298.99,,1005.783,394.568,373.644,,1005.783,79.6375,0.800199,80.0199,79.5719
1007.993,333.294,311.36,,1007.993,413.801,388.537,,1007.993,80.5445,0.801365,80.1365,79.6855
1010.205,355.727,328.027,,1010.205,445.124,410.293,,1010.205,79.9164,0.799494,79.9494,79.8618
1012.417,385.704,349.236,,1012.417,471.173,434.633,,1012.417,81.8604,0.803518,80.3518,79.9725
1014.631,409.773,374.186,,1014.631,504.404,462.228,,1014.631,81.239,0.809528,80.9528,80.1961
1016.845,442.568,400.603,,1016.845,547.543,494.746,,1016.845,80.828,0.809715,80.9715,80.3997
1019.06,473.636,429.812,,1019.06,593.226,534.401,,1019.06,79.8407,0.804288,80.4288,80.5255
1021.277,505.521,459.877,,1021.277,641.091,577.026,,1021.277,78.8532,0.796979,79.6979,80.5031
1023.494,533.043,491.753,,1023.494,672.682,618.95,,1023.494,79.2415,0.794496,79.4496,80.4036
1025.712,557.382,520.515,,1025.712,700.636,653.562,,1025.712,79.5537,0.796428,79.6428,80.1888
1027.931,574.902,544.859,,1027.931,723.589,684.128,,1027.931,79.4515,0.796429,79.6429,79.9296
1030.151,595.695,565.244,,1030.151,746.36,710.127,,1030.151,79.8134,0.795976,79.5976,79.6916
1032.372,606.215,583.748,,1032.372,762.675,733.866,,1032.372,79.4854,0.795442,79.5442,79.5795
1034.594,614.37,598.003,,1034.594,772.535,752.162,,1034.594,79.5265,0.795046,79.5046,79.57
1036.817,616.343,606.755,,1036.817,784.121,766.641,,1036.817,78.603,0.791446,79.1446,79.5222
1039.041,624.407,613.681,,1039.041,784.706,776.29,,1039.041,79.5721,0.790531,79.0531,79.4088
1041.266,628.288,619.256,,1041.266,789.018,782.075,,1041.266,79.6291,0.791811,79.1811,79.3307
1043.492,629.987,623.928,,1043.492,792.237,785.442,,1043.492,79.52,0.794365,79.4365,79.2868
1045.718,629.231,625.304,,1045.718,793.002,788.197,,1045.718,79.348,0.793335,79.3335,79.2529
1047.946,632.656,628.02,,1047.946,792.401,789.724,,1047.946,79.8404,0.795239,79.5239,79.2596
1050.175,634.172,630.652,,1050.175,793.436,791.619,,1050.175,79.9273,0.796661,79.6661,79.3676
1052.405,628.596,630.431,,1052.405,792.47,791.89,,1052.405,79.3211,0.796109,79.6109,79.4659
1054.635,625.111,628.709,,1054.635,785.776,789.36,,1054.635,79.5533,0.796479,79.6479,79.5227
1056.867,619.079,626.024,,1056.867,787.626,786.615,,1056.867,78.6006,0.795846,79.5846,79.5704
1059.099,612.865,620.258,,1059.099,787.384,785.817,,1059.099,77.8356,0.789316,78.9316,79.524
1061.333,616.015,617.205,,1061.333,773.686,781.92,,1061.333,79.6208,0.789346,78.9346,79.3836
1063.567,609.072,613.889,,1063.567,766.806,775.044,,1063.567,79.4297,0.79207,79.207,79.285
1065.802,607.402,610.442,,1065.802,755.742,768.407,,1065.802,80.3716,0.794425,79.4425,79.2406
1068.039,596.095,606.578,,1068.039,747.405,760.279,,1068.039,79.7553,0.797836,79.7836,79.2536
1070.276,587.605,598.687,,1070.276,743.794,753.164,,1070.276,79.001,0.794895,79.4895,79.3135
1072.514,590.297,594.017,,1072.514,733.181,745.682,,1072.514,80.5118,0.796609,79.6609,79.4541
1074.753,584.897,592.12,,1074.753,730.386,738.361,,1074.753,80.0805,0.801938,80.1938,79.6456
1076.993,570.859,586.576,,1076.993,723.134,732.281,,1076.993,78.9424,0.801026,80.1026,79.8138
1079.234,560.913,575.03,,1079.234,719.154,726.24,,1079.234,77.9962,0.791791,79.1791,79.7781
1081.476,558.965,567.66,,1081.476,701.537,717.852,,1081.476,79.6772,0.790776,79.0776,79.648
1083.719,554.653,561.521,,1083.719,693.645,707.543,,1083.719,79.9621,0.79362,79.362,79.613
1085.963,552.795,558.002,,1085.963,682.57,697.588,,1085.963,80.9873,0.799903,79.9903,79.5813
1088.208,542.3,552.431,,1088.208,679.494,689.411,,1088.208,79.8094,0.80131,80.131,79.5671
1090.454,538.44,546.031,,1090.454,672.417,683.648,,1090.454,80.0753,0.798702,79.8702,79.6035
1092.772,535.853,542.362,,1092.772,662.701,676.076,,1092.772,80.8589,0.802221,80.2221,79.8066
1094.985,530.174,538.101,,1094.985,655.712,667.492,,1094.985,80.8547,0.806154,80.6154,80.0522
1097.197,529.221,534.689,,1097.197,655.176,661.371,,1097.197,80.7754,0.808456,80.8456,80.2709
1099.409,514.904,528.882,,1099.409,648.729,656.29,,1099.409,79.3712,0.805866,80.5866,80.3811
1101.622,514.131,521.434,,1101.622,643.735,651.077,,1101.622,79.8669,0.800879,80.0879,80.4197
1103.834,509.176,517.029,,1103.834,630.558,644.368,,1103.834,80.7501,0.802383,80.2383,80.4553
1106.047,490.947,509.041,,1106.047,617.47,634.861,,1106.047,79.5094,0.801815,80.1815,80.4201
1108.259,484.536,497.788,,1108.259,604.108,622.5,,1108.259,80.2069,0.79966,79.966,80.2829
1110.472,482.76,491.239,,1110.472,594.744,610.059,,1110.472,81.1711,0.805233,80.5233,80.1877
1112.684,474.165,484.549,,1112.684,588.197,601.125,,1112.684,80.6133,0.80607,80.607,80.2428
1114.897,464.752,477.039,,1114.897,576.102,592.421,,1114.897,80.6718,0.805236,80.5236,80.3215
1117.109,455.519,468.914,,1117.109,572.643,583.804,,1117.109,79.5468,0.803204,80.3204,80.3536
1119.321,445.557,459.593,,1119.321,558.727,574.676,,1119.321,79.745,0.799743,79.9743,80.3589
1121.534,439.777,451.155,,1121.534,542.991,561.379,,1121.534,80.9916,0.803656,80.3656,80.3775
1123.746,433.36,442.865,,1123.746,534.618,550.187,,1123.746,81.0597,0.804935,80.4935,80.3583
1125.959,425.85,436.317,,1125.959,521.969,539.044,,1125.959,81.5853,0.809428,80.9428,80.402
1128.171,414.158,427.907,,1128.171,512.41,527.379,,1128.171,80.8255,0.811384,81.1384,80.5196
1130.384,404.465,419.219,,1130.384,505.941,517.299,,1130.384,79.9431,0.810399,81.0399,80.6972
1132.596,385.226,405.208,,1132.596,492.015,507.577,,1132.596,78.2956,0.798319,79.8319,80.7149
1134.809,378.622,392.114,,1134.809,476.541,494.825,,1134.809,79.4521,0.79243,79.243,80.5012
1137.021,364.472,381.431,,1137.021,467.339,482.482,,1137.021,77.9888,0.79056,79.056,80.2127
1139.233,354.229,370.341,,1139.233,447.226,469.085,,1139.233,79.2058,0.789496,78.9496,79.8054
1141.446,347.895,360.876,,1141.446,436.474,453.839,,1141.446,79.7058,0.795164,79.5164,79.4681
1143.658,341.924,353.587,,1143.658,427.176,442.761,,1143.658,80.0429,0.798596,79.8596,79.3154
1145.871,324.406,344.059,,1145.871,417.603,433.352,,1145.871,77.6829,0.793948,79.3948,79.3393
1148.083,316.615,331.138,,1148.083,406.664,423.006,,1148.083,77.8567,0.78282,78.282,79.2206
1150.296,306.55,322.365,,1150.296,397.997,412.288,,1150.296,77.0232,0.781894,78.1894,79.0921
1152.508,292.847,310.603,,1152.508,378.873,399.405,,1152.508,77.2942,0.777664,77.7664,78.843
1154.721,281.78,298.844,,1154.721,371.929,386.306,,1154.721,75.7618,0.773595,77.3595,78.4408
1156.933,273.894,288.023,,1156.933,362.529,377.74,,1156.933,75.5509,0.76249,76.249,77.8335
1159.145,262.371,278.075,,1159.145,345.945,365.105,,1159.145,75.8418,0.761633,76.1633,77.3171
1161.358,257.938,268.331,,1161.358,337.269,352.556,,1161.358,76.4784,0.761101,76.1101,76.9074
1163.57,250.958,261.109,,1163.57,331.501,343.465,,1163.57,75.7035,0.76022,76.022,76.5552
1165.783,239.614,252.282,,1165.783,320.367,334.68,,1165.783,74.7936,0.753799,75.3799,76.1701
1167.995,233.269,244.677,,1167.995,314.595,325.575,,1167.995,74.149,0.751522,75.1522,75.8541
1170.208,225.014,236.267,,1170.208,309.912,318.454,,1170.208,72.6058,0.741921,74.1921,75.5414
1172.42,219.485,229.354,,1172.42,302.319,311.822,,1172.42,72.6005,0.73553,73.553,75.0751
1174.633,212.502,222.872,,1174.633,293.452,303.95,,1174.633,72.4146,0.733252,73.3252,74.5381
1176.845,207.154,215.613,,1176.845,287.311,296.555,,1176.845,72.101,0.727061,72.7061,73.9759
1179.057,206.078,210.734,,1179.057,269.168,287.512,,1179.057,76.5611,0.732956,73.2956,73.5483
1181.27,192.546,204.846,,1181.27,259.57,275.388,,1181.27,74.1788,0.743843,74.3843,73.4395
1183.482,192.469,197.417,,1183.482,258.334,266.759,,1183.482,74.5039,0.740054,74.0054,73.4992
1185.695,192.664,194.529,,1185.695,253.916,260.707,,1185.695,75.8771,0.746158,74.6158,73.6943
1187.907,188.131,192.246,,1187.907,251.678,256.108,,1187.907,74.7507,0.750644,75.0644,74.0642
1190.12,178.598,188.123,,1190.12,240.621,251.416,,1190.12,74.2238,0.748253,74.8253,74.4624
1192.332,173.61,181.218,,1192.332,233.382,244.964,,1192.332,74.3888,0.739773,73.9773,74.5086
1194.545,172.53,176.812,,1194.545,223.506,236.57,,1194.545,77.1926,0.747397,74.7397,74.5553
1196.757,171.632,173.356,,1196.757,220.356,227.657,,1196.757,77.8885,0.761483,76.1483,74.8404
1198.969,176.28,173.481,,1198.969,222.843,224.322,,1198.969,79.105,0.773359,77.3359,75.2554
1201.182,172.563,173.741,,1201.182,222.693,224.009,,1201.182,77.4892,0.775597,77.5597,75.7509
1203.394,167.847,171.919,,1203.394,227.543,224.733,,1203.394,73.765,0.764995,76.4995,76.2435
1205.607,170.494,170.458,,1205.607,221.393,224.578,,1205.607,77.0097,0.759013,75.9013,76.5499
1207.819,162.324,168.723,,1207.819,215.152,219.749,,1207.819,75.4462,0.767798,76.7798,76.8077
1210.032,156.971,162.75,,1210.032,210.821,215.869,,1210.032,74.457,0.753931,75.3931,76.6481
1212.244,155.983,159.342,,1212.244,206.855,212.013,,1212.244,75.4069,0.751565,75.1565,76.2023
1214.456,151.904,156.107,,1214.456,197.525,207.03,,1214.456,76.9037,0.754029,75.4029,75.8213
1216.669,137.19,149.821,,1216.669,185.106,198.968,,1216.669,74.1143,0.752992,75.2992,75.7349
1218.881,122.203,139.138,,1218.881,171.779,188.373,,1218.881,71.1397,0.738633,73.8633,75.3364
1221.094,110.763,127.064,,1221.094,151.726,174.676,,1221.094,73.002,0.727426,72.7426,74.7302
1223.306,105.596,116.297,,1223.306,139.766,159.438,,1223.306,75.552,0.729416,72.9416,74.2793
1225.519,95.885,108.991,,1225.519,124.081,145.808,,1225.519,77.2761,0.747497,74.7497,74.0854
1227.731,86.63,99.7,,1227.731,117.488,132.501,,1227.731,73.7352,0.752449,75.2449,74.0231
1229.944,82.103,92.3459,,1229.944,112.353,124.089,,1229.944,73.0759,0.744193,74.4193,73.9734
1232.156,77.942,85.6662,,1232.156,97.22,114.347,,1232.156,80.1707,0.749177,74.9177,74.2103
1234.368,75.327,81.3003,,1234.368,97.727,105.743,,1234.368,77.079,0.76885,76.885,74.9218
1236.581,66.259,75.988,,1236.581,95.509,101.209,,1236.581,69.3746,0.750805,75.0805,75.338
1238.793,64.103,70.1468,,1238.793,88.568,95.5963,,1238.793,72.3772,0.733782,73.3782,75.0521
1241.006,65.584,67.9502,,1241.006,82.539,89.3296,,1241.006,79.4582,0.760668,76.0668,75.0617
1242.586,65.986,67.1526,,1242.586,79.058,86.0609,,1242.586,83.4653,0.780292,78.0292,