File: public_html/data/backup/plexiglas_2C04.csv
wavelength_nm,intensity,intensity_smoothed,,wavelength_nm2,intensity_i0,intensity_i0_smoothed,,wavelength_nm3,,transmission,transmission_perc,transmission_perc_smoothed
173.232,12.691,#N/A,,173.232,26.786,#N/A,,173.232,47.3792,#N/A,#N/A,#N/A
175.084,18.403,14.0005,,175.084,38.604,29.6984,,175.084,47.6712,0.471423,47.1423,#N/A
176.935,18.584,17.0497,,176.935,36.058,34.7287,,176.935,51.5392,0.490939,49.0939,#N/A
178.787,13.493,16.5513,,178.787,36.057,35.7311,,178.787,37.4213,0.463219,46.3219,#N/A
180.639,11.219,14.0328,,180.639,33.693,36.2498,,180.639,33.2977,0.387113,38.7113,#N/A
182.491,13.764,12.5973,,182.491,35.146,34.8517,,182.491,39.1624,0.361454,36.1454,#N/A
184.342,20.4,15.2162,,184.342,38.873,36.5629,,184.342,52.4786,0.416164,41.6164,43.3531
186.194,17.581,17.2045,,186.194,37.236,37.7408,,186.194,47.2151,0.455861,45.5861,42.7651
188.046,20.49,17.3207,,188.046,41.599,37.9195,,188.046,49.256,0.456775,45.6775,42.0615
189.897,20.944,18.3704,,189.897,38.507,39.5136,,189.897,54.3901,0.464912,46.4912,42.5719
191.749,15.58,17.7585,,191.749,31.688,37.3555,,191.749,49.1669,0.475393,47.5393,44.4169
193.601,16.579,17.2529,,193.601,33.505,35.5764,,193.601,49.4822,0.484953,48.4953,46.307
195.453,13.306,15.43,,195.453,33.504,35.1224,,195.453,39.7147,0.439322,43.9322,46.6121
197.304,16.851,14.1892,,197.304,32.14,34.8236,,197.304,52.43,0.40746,40.746,45.868
199.156,17.032,15.189,,199.156,31.503,33.8949,,199.156,54.0647,0.44812,44.812,45.5728
201.008,16.577,15.2483,,201.008,34.684,33.8897,,201.008,47.7944,0.44994,44.994,45.2392
202.86,20.031,16.7701,,202.86,34.683,34.1697,,202.86,57.7545,0.49079,49.079,45.1929
204.711,19.485,18.9395,,204.711,35.227,35.1271,,204.711,55.3127,0.53917,53.917,46.2725
206.563,17.03,18.3461,,206.563,32.136,34.3423,,206.563,52.9935,0.534213,53.4213,48.5248
208.415,16.12,17.2,,208.415,36.68,34.8728,,208.415,43.9477,0.493222,49.3222,49.8594
210.267,10.483,15.6388,,210.267,34.316,35.8565,,210.267,30.5484,0.436149,43.6149,49.7949
212.118,11.483,13.76,,212.118,32.679,35.2305,,212.118,35.1388,0.390572,39.0572,48.487
213.97,14.937,13.858,,213.97,29.859,33.8215,,213.97,50.0251,0.409739,40.9739,46.2605
215.822,19.209,16.3776,,215.822,29.859,31.0561,,215.822,64.3324,0.527354,52.7354,45.2995
217.673,15.845,16.6524,,217.673,35.858,33.0981,,217.673,44.1882,0.503124,50.3124,45.3854
219.525,19.389,17.2384,,219.525,29.402,33.5853,,219.525,65.9445,0.513272,51.3272,45.949
221.377,14.843,16.7621,,221.377,33.31,32.2544,,221.377,44.5602,0.519685,51.9685,48.3014
223.229,11.388,13.4523,,223.229,37.764,34.2879,,223.229,30.1557,0.392335,39.2335,49.1904
225.08,13.115,11.8836,,225.08,38.763,35.4599,,225.08,33.8338,0.335129,33.5129,47.1307
226.932,18.66,14.6706,,226.932,38.217,37.2011,,226.932,48.8264,0.394359,39.4359,44.1194
228.784,17.477,16.7806,,228.784,32.761,36.0345,,228.784,53.347,0.465681,46.5681,43.1422
230.636,12.204,16.3886,,230.636,29.397,34.1797,,230.636,41.5144,0.479483,47.9483,42.0865
232.487,14.112,14.7076,,232.487,33.214,33.1807,,232.487,42.4881,0.443256,44.3256,41.7006
234.339,14.475,14.4988,,234.339,34.304,34.4358,,234.339,42.1962,0.42104,42.104,42.8648
236.191,15.838,13.8446,,236.191,27.485,31.4748,,236.191,57.6242,0.439862,43.9862,44.2163
238.043,21.565,15.9887,,238.043,35.848,30.3274,,238.043,60.1568,0.527203,52.7203,45.7709
239.894,23.837,19.2771,,239.894,44.574,35.5211,,239.894,53.4774,0.542694,54.2694,47.1226
241.746,25.473,22.6729,,241.746,53.482,42.8589,,241.746,47.6291,0.529013,52.9013,48.5622
243.598,23.2,23.6336,,243.598,62.208,50.6793,,243.598,37.2942,0.466336,46.6336,49.6408
245.449,28.199,24.6812,,245.449,62.662,56.7962,,245.449,45.0018,0.434557,43.4557,50.0115
247.301,31.198,27.1328,,247.301,66.025,60.0306,,247.301,47.2518,0.451983,45.1983,49.4432
249.153,34.198,30.2117,,249.153,75.569,66.0606,,249.153,45.254,0.457333,45.7333,47.8381
251.005,29.561,30.2624,,251.005,79.023,71.749,,251.005,37.4081,0.421782,42.1782,45.8543
252.856,31.651,29.9244,,252.856,77.567,74.9429,,252.856,40.8047,0.399296,39.9296,43.9267
254.681,33.196,30.9631,,254.681,79.021,76.3829,,254.681,42.0091,0.405367,40.5367,43.1788
256.513,37.559,33.3462,,256.513,83.292,79.0528,,256.513,45.0932,0.421822,42.1822,42.6107
258.347,38.74,36.116,,258.347,84.019,82.1099,,258.347,46.1086,0.43985,43.985,42.1328
260.181,36.285,36.6613,,260.181,84.472,83.6374,,260.181,42.9551,0.438337,43.8337,41.9536
262.017,35.284,36.2041,,262.017,81.108,83.7727,,262.017,43.5025,0.43217,43.217,42.3946
263.853,34.738,35.9518,,263.853,85.197,83.7059,,263.853,40.7737,0.429502,42.9502,42.9105
265.691,38.373,36.0798,,265.691,83.469,84.7439,,265.691,45.9728,0.425751,42.5751,43.1825
267.53,36.373,36.0541,,267.53,78.923,83.0577,,267.53,46.0867,0.434084,43.4084,43.2569
269.369,35.099,35.1224,,269.369,82.013,82.1681,,269.369,42.7969,0.427446,42.7446,43.0928
271.21,36.462,35.4544,,271.21,81.648,82.5729,,271.21,44.6576,0.429371,42.9371,43.0012
273.052,35.371,35.6871,,273.052,78.374,81.0571,,273.052,45.131,0.440271,44.0271,43.1068
274.895,34.279,35.6161,,274.895,79.009,79.5774,,274.895,43.3862,0.447566,44.7566,43.4992
276.739,34.006,34.6507,,276.739,83.554,81.013,,276.739,40.6994,0.427718,42.7718,43.5495
278.584,35.823,35.3077,,278.584,79.462,81.556,,278.584,45.0819,0.432926,43.2926,43.416
280.431,38.186,36.5281,,280.431,84.461,81.9941,,280.431,45.2114,0.445497,44.5497,43.6761
282.278,32.185,35.9138,,282.278,87.55,84.3235,,282.278,36.7619,0.425905,42.5905,43.6484
284.126,33.639,34.0737,,284.126,87.549,85.4577,,284.126,38.4231,0.39872,39.872,42.8801
285.976,32.911,33.663,,285.976,89.821,87.2231,,285.976,36.6407,0.385942,38.5942,41.9478
287.826,37.001,33.8531,,287.826,86.82,87.5194,,287.826,42.6181,0.386806,38.6806,41.1571
289.678,35.182,35.4542,,289.678,88.001,87.5632,,289.678,39.9791,0.404899,40.4899,40.4162
291.531,35.272,35.0394,,291.531,82.999,86.9141,,291.531,42.4969,0.403149,40.3149,39.6802
293.385,34.999,35.1558,,293.385,86.544,86.0818,,293.385,40.4407,0.4084,40.84,39.6417
295.239,33.089,34.3777,,295.239,83.452,86.6223,,295.239,39.6503,0.396869,39.6869,39.7823
297.095,34.361,33.5296,,297.095,80.632,83.1922,,297.095,42.6146,0.403038,40.3038,40.1435
298.952,32.906,33.5437,,298.952,84.904,83.8708,,298.952,38.7567,0.399945,39.9945,40.2757
300.81,30.905,32.9178,,300.81,81.721,82.882,,300.81,37.8177,0.397165,39.7165,40.2392
302.669,32.813,33.1171,,302.669,90.811,84.7768,,302.669,36.1333,0.390639,39.0639,39.9772
304.53,34.176,34.2434,,304.53,88.537,86.7993,,304.53,38.6008,0.394513,39.4513,39.7204
306.391,33.357,34.0138,,306.391,85.536,86.9114,,306.391,38.9976,0.391362,39.1362,39.5983
308.253,33.629,33.2855,,308.253,82.171,84.5328,,308.253,40.9256,0.393758,39.3758,39.3878
310.117,35.356,33.7973,,310.117,84.624,82.3974,,310.117,41.7801,0.410175,41.0175,39.5098
311.981,32.355,33.063,,311.981,90.623,85.0406,,311.981,35.7029,0.388791,38.8791,39.5832
313.847,36.536,33.3965,,313.847,85.258,86.5371,,313.847,42.8535,0.385921,38.5921,39.479
315.713,30.899,34.0454,,315.713,86.621,85.0832,,315.713,35.6715,0.400143,40.0143,39.6202
317.581,29.989,32.2377,,317.581,89.074,85.5077,,317.581,33.6675,0.377015,37.7015,39.409
319.45,33.988,32.3272,,319.45,86.709,86.1281,,319.45,39.1978,0.375339,37.5339,38.796
321.319,38.896,34.5981,,321.319,85.071,85.8514,,321.319,45.7218,0.403,40.3,38.5146
323.19,36.623,36.3643,,323.19,89.525,86.5611,,323.19,40.9081,0.4201,42.01,39.1269
325.062,33.622,35.6546,,325.062,82.524,87.1706,,325.062,40.7421,0.409021,40.9021,39.4039
326.935,31.439,34.3303,,326.935,88.25,86.2735,,326.935,35.6249,0.397924,39.7924,39.6777
328.809,30.529,33.249,,328.809,91.521,87.842,,328.809,33.3574,0.378509,37.8509,39.937
330.685,32.619,32.476,,330.685,97.156,91.0015,,330.685,33.5738,0.356873,35.6873,39.5423
332.561,32.255,32.7987,,332.561,89.337,92.2346,,332.561,36.1049,0.355601,35.5601,38.4461
334.438,34.436,33.5855,,334.438,91.608,90.0201,,334.438,37.5906,0.37309,37.309,37.5503
336.316,39.162,35.9385,,336.316,91.879,91.5528,,336.316,42.6235,0.392544,39.2544,37.1607
338.196,39.616,37.748,,338.196,87.424,90.232,,338.196,45.3148,0.418343,41.8343,37.5582
340.076,36.888,37.5328,,340.076,90.422,89.0709,,340.076,40.7954,0.421382,42.1382,38.6068
341.958,34.523,35.8948,,341.958,88.694,88.8436,,341.958,38.9237,0.404022,40.4022,39.636
343.84,30.159,34.598,,343.84,88.42,88.2726,,343.84,34.1088,0.391945,39.1945,40.2709
345.724,26.703,30.8133,,345.724,94.418,90.3649,,345.724,28.2817,0.340988,34.0988,39.8304
347.609,36.978,31.9972,,347.609,94.789,93.2687,,347.609,39.0109,0.343064,34.3064,38.5823
349.495,38.071,35.8293,,349.495,91.155,93.6846,,349.495,41.7651,0.382446,38.2446,37.6294
351.382,34.514,36.5487,,351.382,90.863,92.7503,,351.382,37.9847,0.394055,39.4055,37.2484
353.269,35.653,35.031,,353.269,93.89,92.5566,,353.269,37.9732,0.378482,37.8482,36.9449
355.158,45.097,37.0358,,355.158,91.527,92.7964,,355.158,49.2718,0.399108,39.9108,37.303
357.048,47.901,42.0256,,357.048,92.684,93.1377,,357.048,51.6821,0.45122,45.122,39.2792
358.94,44.288,43.6066,,358.94,95.218,94.2336,,358.94,46.5122,0.46275,46.275,41.1953
360.832,44.439,43.7462,,360.832,96.431,95.4034,,360.832,46.0837,0.458539,45.8539,42.4983
362.725,44.352,44.2384,,362.725,93.62,95.0673,,362.725,47.3745,0.465337,46.5337,43.8975
364.619,44.624,43.6373,,364.619,105.359,96.5883,,364.619,42.3542,0.451787,45.1787,45.3368
366.515,42.592,42.3656,,366.515,104.282,101.133,,366.515,40.8431,0.418909,41.8909,45.4518
368.411,41.577,42.3383,,368.411,101.47,101.551,,368.411,40.9747,0.416916,41.6916,44.6439
370.308,42.923,42.4423,,370.308,97.975,100.897,,370.308,43.8102,0.420649,42.0649,43.8748
372.207,40.662,42.5999,,372.207,105.848,101.347,,372.207,38.4155,0.420337,42.0337,43.1286
374.107,39.884,41.2989,,374.107,105.608,103.386,,374.107,37.7661,0.399464,39.9464,42.036
376.007,43.857,41.5818,,376.007,106.189,104.33,,376.007,41.3009,0.398559,39.8559,41.2352
377.909,41.778,42.5475,,377.909,105.226,104.795,,377.909,39.7031,0.406006,40.6006,40.9732
379.812,41.5,41.8759,,379.812,111.582,106.882,,379.812,37.1924,0.391794,39.1794,40.5721
381.716,37.407,40.9385,,381.716,114.291,109.895,,381.716,32.7296,0.372525,37.2525,39.7659
383.62,34.174,38.8131,,383.62,112.097,112.163,,383.62,30.4861,0.346042,34.6042,38.6742
385.526,32.974,36.6663,,385.526,116.28,112.79,,385.526,28.3574,0.325085,32.5085,37.4096
387.433,37.906,36.1748,,387.433,115.424,114.342,,387.433,32.8407,0.316375,31.6375,35.7545
389.341,36.971,36.5773,,389.341,119.767,115.64,,389.341,30.8691,0.316303,31.6303,34.1484
391.25,39.651,37.1095,,391.25,130.241,120.838,,391.25,30.4443,0.307102,30.7102,32.6991
393.161,41.045,39.048,,393.161,141.583,128.167,,393.161,28.9901,0.304666,30.4666,31.6616
395.072,42.77,39.8419,,395.072,162.278,140.311,,395.072,26.356,0.283954,28.3954,30.8051
396.984,47.247,42.1028,,396.984,184.699,157.71,,396.984,25.5805,0.266964,26.6964,29.9429
398.897,37.544,41.4432,,398.897,227.497,182.636,,398.897,16.5031,0.226916,22.6916,28.5368
400.812,40.606,38.8998,,400.812,289.932,221.57,,400.812,14.0054,0.175565,17.5565,26.2289
402.727,44.543,41.224,,402.727,375.612,277.644,,402.727,11.8588,0.148478,14.8478,23.3805
404.644,42.588,41.8866,,404.644,524.35,364.121,,404.644,8.12206,0.115035,11.5035,20.1386
406.561,43.27,42.3885,,406.561,752.631,501.419,,406.561,5.74917,0.084537,8.4537,16.6817
408.48,41.269,42.9791,,408.48,1090.276,712.968,,408.48,3.78519,0.060282,6.0282,13.1356
410.4,41.096,43.0054,,410.4,1576.714,1024.69,,410.4,2.60643,0.0419693,4.19693,10.1708
412.32,41.027,42.9045,,412.32,2292.428,1484.04,,412.32,1.78967,0.0289106,2.89106,7.68383
414.242,44.702,42.732,,414.242,3303.056,2146.55,,414.242,1.35335,0.0199073,1.99073,5.55458
416.165,47.69,43.4201,,416.165,4719.128,3089.8,,416.165,1.01057,0.0140527,1.40527,3.92557
418.089,47.66,45.7529,,418.089,6623.23,4399.73,,418.089,0.719588,0.010399,1.0399,2.7415
420.014,44.21,46.1559,,420.014,9137.17,6168.31,,420.014,0.483848,0.00748274,0.748274,1.91722
421.939,43.364,43.8797,,421.939,12355.714,8501.15,,421.939,0.350963,0.00516162,0.516162,1.34767
423.866,44.97,44.1477,,423.866,16253.351,11472.2,,423.866,0.276681,0.00384824,0.384824,0.960231
425.795,44.13,44.5891,,425.795,20920.267,15116.3,,425.795,0.210944,0.00294974,0.294974,0.695375
427.724,37.278,42.5538,,427.724,26342.847,19491.6,,427.724,0.141511,0.00218319,0.218319,0.506322
429.654,36.632,39.3146,,429.654,32472.644,24593,,429.654,0.112809,0.00159861,0.159861,0.366297
431.585,45.412,39.9041,,431.585,39466.603,30450.9,,431.585,0.115064,0.00131044,0.131044,0.271087
433.517,46.808,42.8067,,433.517,47212.176,37095.6,,433.517,0.0991439,0.00115396,0.115396,0.208066
435.451,47.632,45.3733,,435.451,57567.013,44916.7,,435.451,0.0827418,0.00101017,0.101017,0.162734
437.385,46.784,45.9007,,437.385,64000,53518.3,,437.385,0.0731,0.000857663,0.0857663,0.130326
439.32,47.517,45.9913,,439.32,64000,58986.7,,439.32,0.0742453,0.00077969,0.077969,0.10936
441.257,44.877,45.4807,,441.257,64000,61602.1,,441.257,0.0701203,0.000738298,0.0738298,0.0960671
443.194,45.372,44.2185,,443.194,63787.125,62827.3,,443.194,0.0711303,0.000703809,0.0703809,0.0859691
445.133,43.679,44.2142,,445.133,62883.234,63135.6,,445.133,0.0694605,0.000700306,0.0700306,0.0785053
447.072,36.447,41.7077,,447.072,61142.14,62615.5,,447.072,0.0596103,0.000666092,0.0666092,0.0734981
449.013,41.65,39.6295,,449.013,56984.331,60958,,449.013,0.0730903,0.000650112,0.0650112,0.0703458
450.955,39.528,39.9906,,450.955,48943.691,56974.3,,450.955,0.0807622,0.000701905,0.0701905,0.0688994
452.897,41.654,38.9505,,452.897,40056.044,50478,,452.897,0.103989,0.000771634,0.0771634,0.0694935
454.841,46.531,41.3916,,454.841,32726.301,43097.4,,454.841,0.142182,0.00096042,0.096042,0.0732929
456.786,43.398,42.4288,,456.786,27131.96,36193.8,,456.786,0.159952,0.00117227,0.117227,0.0815175
458.732,43.207,42.5374,,458.732,22827.2,30323.6,,458.732,0.189279,0.00140278,0.140278,0.094502
460.679,41.255,42.7045,,460.679,19324.818,25488.8,,460.679,0.213482,0.00167542,0.167542,0.112051
462.627,35.626,41.5499,,462.627,16380.89,21505.9,,462.627,0.217485,0.00193203,0.193203,0.133357
464.576,36.227,39.13,,464.576,13857.231,18175.3,,464.576,0.26143,0.00215293,0.215293,0.156519
466.526,35.969,38.3278,,466.526,11729.578,15364,,466.526,0.306652,0.00249465,0.249465,0.181379
468.477,37.305,37.3997,,468.477,9995.534,13006.5,,468.477,0.373217,0.00287547,0.287547,0.209394
470.429,37.282,37.795,,470.429,8656.172,11077,,470.429,0.430698,0.00341202,0.341202,0.242187
472.382,39.864,37.91,,472.382,7635.598,9541.11,,472.382,0.522081,0.00397333,0.397333,0.280341
474.336,44.059,39.7936,,474.336,6854.628,8338.67,,474.336,0.642763,0.00477218,0.477218,0.328161
476.292,43.511,41.4022,,476.292,6260.377,7405.36,,476.292,0.695022,0.00559084,0.559084,0.386928
478.248,40.735,41.9447,,478.248,5803.889,6686.65,,478.248,0.701857,0.0062729,0.62729,0.452675
480.205,43.128,40.9835,,480.205,5461.718,6135.55,,480.205,0.789642,0.00667967,0.667967,0.518003
482.164,44.374,42.0463,,482.164,5237.861,5720.76,,482.164,0.847178,0.00734978,0.734978,0.584816
484.123,38.205,40.4428,,484.123,5160.507,5444.05,,484.123,0.740334,0.00742881,0.742881,0.645076
486.083,45.254,40.924,,486.083,5228.466,5308.26,,486.083,0.865531,0.00770948,0.770948,0.691729
488.045,48.132,44.1694,,488.045,5480.019,5324.94,,488.045,0.878318,0.00829481,0.829481,0.733923
490.007,46.195,45.3691,,490.007,5891.004,5504.92,,490.007,0.784162,0.00824157,0.824157,0.769261
491.971,44.967,45.1679,,491.971,6468.471,5846.97,,491.971,0.695172,0.007725,0.7725,0.786594
493.936,42.201,44.2975,,493.936,7190.779,6348.99,,493.936,0.586877,0.00697709,0.697709,0.781525
495.901,47.741,44.8439,,495.901,8029.417,6994.04,,495.901,0.594576,0.00641173,0.641173,0.762919
497.868,47.266,46.8706,,497.868,9011.373,7778.88,,497.868,0.524515,0.00602537,0.602537,0.72801
499.836,43.789,45.8452,,499.836,10104.749,8696.37,,499.836,0.433351,0.00527176,0.527176,0.67457
501.804,46.409,45.4458,,501.804,11270.159,9726.87,,501.804,0.411787,0.00467219,0.467219,0.613343
503.774,43.462,45.9446,,503.774,12464.423,10834.2,,503.774,0.348688,0.00424069,0.424069,0.555634
505.745,40.647,42.4653,,505.745,13673.219,11989.4,,505.745,0.297275,0.00354191,0.354191,0.499806
507.717,42.525,41.5495,,507.717,14872.93,13172.9,,507.717,0.285922,0.00315415,0.315415,0.442755
509.69,44.361,42.2946,,509.69,16056.998,14363.8,,509.69,0.276272,0.00294454,0.294454,0.391307
511.664,44.223,43.7095,,511.664,17217.394,15546.2,,511.664,0.256851,0.0028116,0.28116,0.351057
513.639,48.543,45.0285,,513.639,18283.309,16693.9,,513.639,0.265504,0.00269731,0.269731,0.317185
515.615,44.812,46.7033,,515.615,19258.438,17775.9,,515.615,0.232688,0.00262735,0.262735,0.292838
517.592,44.832,45.9121,,517.592,20128.144,18776.6,,517.592,0.222733,0.00244518,0.244518,0.27644
519.57,44.105,45.9469,,519.57,20880.749,19677.7,,519.57,0.211223,0.00233497,0.233497,0.26316
521.549,44.053,44.791,,521.549,21567.103,20481.6,,521.549,0.20426,0.00218689,0.218689,0.250693
523.529,49.414,45.1627,,523.529,22195.328,21213.8,,523.529,0.222632,0.00212893,0.212893,0.239143
525.51,56.272,49.7133,,525.51,22691.129,21857.8,,525.51,0.247991,0.0022744,0.22744,0.230457
527.493,74.705,58.0109,,527.493,23058.875,22393.1,,527.493,0.323975,0.00259057,0.259057,0.229198
529.476,102.146,73.6845,,529.476,23304.066,22803.7,,529.476,0.438318,0.00323125,0.323125,0.241198
531.46,163.151,102.852,,531.46,23470.938,23114.7,,531.46,0.695119,0.00444965,0.444965,0.274694
533.446,282.008,161.727,,533.446,23511.018,23315.5,,533.446,1.19947,0.00693648,0.693648,0.349967
535.432,487.837,271.387,,535.432,23522.14,23420.3,,535.432,2.07395,0.0115877,1.15877,0.499792
537.419,834.711,466.938,,537.419,23550.666,23479.6,,537.419,3.54432,0.019887,1.9887,0.781044
539.408,1373.918,786.807,,539.408,23514.322,23508.5,,539.408,5.8429,0.033469,3.3469,1.27988
541.397,2113.54,1272.3,,541.397,23421.676,23487.5,,541.397,9.02386,0.0541693,5.41693,2.11429
543.388,3048.828,1939.33,,543.388,23308.611,23427,,543.388,13.0803,0.0827818,8.27818,3.41453
545.379,4173.994,2797.8,,545.379,23191.606,23337.7,,545.379,17.9979,0.119884,11.9884,5.30754
547.372,5410.86,3826.65,,547.372,23067.082,23233,,547.372,23.4571,0.164708,16.4708,7.89381
549.365,6727.151,4986.93,,549.365,22873.453,23102.2,,549.365,29.4103,0.215863,21.5863,11.2182
551.36,8009.089,6224.25,,551.36,22657.524,22929.7,,551.36,35.3485,0.27145,27.145,15.2609
553.356,9245.407,7474.68,,553.356,22458.012,22738.3,,553.356,41.1675,0.328727,32.8727,19.9254
555.352,10369.53,8689.3,,555.352,22260.207,22544.8,,555.352,46.5833,0.385423,38.5423,25.0589
557.35,11405.427,9833.34,,557.35,21989.908,22330.1,,557.35,51.8666,0.440363,44.0363,30.4741
559.349,12273.422,10880.5,,559.349,21709.137,22080.9,,559.349,56.5357,0.492754,49.2754,35.9961
561.348,13003.818,11795.8,,561.348,21446.354,21819.4,,561.348,60.6342,0.540612,54.0612,41.4407
563.349,13638.913,12594.2,,563.349,21149.204,21549.7,,563.349,64.489,0.584425,58.4425,46.6661
565.351,14136.886,13274.7,,565.351,20809.542,21256.4,,565.351,67.9346,0.624503,62.4503,51.5873
567.354,14540.225,13833.8,,567.354,20445.19,20936.2,,567.354,71.1181,0.66076,66.076,56.1564
569.358,14841.971,14284.1,,569.358,20090.264,20589.1,,569.358,73.8764,0.693771,69.3771,60.3452
571.363,15046.719,14631.8,,571.363,19686.427,20228.3,,571.363,76.4319,0.723334,72.3334,64.1555
573.368,15213.695,14892.2,,573.368,19315.428,19846,,573.368,78.7645,0.750389,75.0389,67.6196
575.375,15343.556,15097.1,,575.375,18986.807,19488.9,,575.375,80.8117,0.774649,77.4649,70.7595
577.383,15365.176,15236.9,,577.383,18574.161,19122.9,,577.383,82.7234,0.796788,79.6788,73.6014
579.392,15334.227,15298,,579.392,18171.353,18727.8,,579.392,84.3868,0.816859,81.6859,76.1749
581.402,15279.146,15300,,581.402,17776.569,18343.2,,581.402,85.951,0.834095,83.4095,78.4938
583.413,15205.054,15270.8,,583.413,17345.495,17939.5,,583.413,87.66,0.85124,85.124,80.5979
585.425,15005.1,15185.9,,585.425,16927.19,17522,,585.425,88.645,0.866679,86.6679,82.5182
587.439,14823.441,15041.4,,587.439,16478.458,17098.9,,587.439,89.9565,0.87967,87.967,84.2533
589.453,14598.193,14870.5,,589.453,16021.565,16657.7,,589.453,91.1159,0.892706,89.2706,85.8325
591.468,14369.159,14667.1,,591.468,15595.936,16217,,591.468,92.134,0.904428,90.4428,87.2849
593.484,14131.985,14452.7,,593.484,15135.761,15776.2,,593.484,93.3682,0.91611,91.611,88.6332
595.501,13821.446,14208.8,,595.501,14661.348,15320.5,,595.501,94.2713,0.92744,92.744,89.8828
597.519,13447.331,13912.4,,597.519,14208.392,14858.6,,597.519,94.6436,0.93632,93.632,91.0507
599.539,13105.308,13582.7,,599.539,13742.769,14406.5,,599.539,95.3615,0.942814,94.2814,92.1025
601.559,12717.33,13240.8,,601.559,13250.632,13937.9,,601.559,95.9753,0.949986,94.9986,93.0517
603.58,12337.024,12871.9,,603.58,12766.031,13456.8,,603.58,96.6395,0.956534,95.6534,93.9088
605.602,11947.9,12495,,605.602,12339.477,12986.6,,605.602,96.8266,0.962148,96.2148,94.6602
607.626,11562.34,12114,,607.626,11850.801,12526.1,,607.626,97.5659,0.9671,96.71,95.3045
609.65,11159.132,11722,,609.65,11365.108,12046.9,,609.65,98.1876,0.973025,97.3025,95.9147
611.675,10760.247,11327.1,,611.675,10930.839,11580.6,,611.675,98.4394,0.978104,97.8104,96.4979
613.702,10356.401,10925.7,,613.702,10480.543,11125.3,,613.702,98.8155,0.982059,98.2059,97.0315
615.729,9952.08,10523.1,,615.729,10058.86,10678.5,,615.729,98.9384,0.985447,98.5447,97.5121
617.757,9527.839,10119.2,,617.757,9626.625,10242.3,,617.757,98.9738,0.987989,98.7989,97.9514
619.787,9102.084,9701.5,,619.787,9178.597,9804.92,,619.787,99.1664,0.989452,98.9452,98.319
621.817,8737.835,9294.56,,621.817,8739.57,9363.02,,621.817,99.9801,0.992689,99.2689,98.6255
623.849,8392.98,8916.59,,623.849,8378.301,8944.18,,623.849,100.175,0.996915,99.6915,98.9266
625.881,8022.675,8552.09,,625.881,8018.036,8559.97,,625.881,100.058,0.99908,99.908,99.2094
627.915,7628.999,8176.39,,627.915,7612.591,8173.49,,627.915,100.216,1.00035,100.035,99.4612
629.949,7270.849,7798.31,,629.949,7253.439,7787.88,,629.949,100.24,1.00134,100.134,99.6976
631.985,6940.04,7439.05,,631.985,6920.723,7425.09,,631.985,100.279,1.00188,100.188,99.9093
634.021,6618.493,7097.82,,634.021,6588.839,7077.77,,634.021,100.45,1.00283,100.283,100.059
636.059,6301.584,6768.3,,636.059,6255.693,6735.87,,636.059,100.734,1.00481,100.481,100.176
638.098,5968.768,6440.13,,638.098,5940.561,6402.08,,638.098,100.475,1.00594,100.594,100.293
640.137,5654.725,6112.86,,640.137,5647.062,6082.74,,640.137,100.136,1.00495,100.495,100.377
642.178,5373.5,5803.34,,642.178,5351.739,5777.91,,642.178,100.407,1.0044,100.44,100.429
644.219,5094.687,5507.8,,644.219,5077.458,5483.36,,644.219,100.339,1.00446,100.446,100.471
646.262,4826.149,5223.29,,646.262,4811.13,5203.37,,646.262,100.312,1.00383,100.383,100.476
648.306,4565.994,4949.46,,648.306,4540.322,4928.5,,648.306,100.565,1.00425,100.425,100.448
650.35,4303.8,4683.29,,650.35,4299.885,4664.42,,650.35,100.091,1.00404,100.404,100.422
652.396,4059.653,4423.57,,652.396,4069.196,4416.55,,652.396,99.7655,1.00159,100.159,100.383
654.443,3832.328,4174.96,,654.443,3845.692,4178.94,,654.443,99.6525,0.999046,99.9046,100.295
656.49,3618.692,3939.92,,656.49,3614.831,3945.61,,656.49,100.107,0.998556,99.8556,100.191
658.539,3399.301,3714.74,,658.539,3395.884,3715.16,,658.539,100.101,0.999886,99.9886,100.11
660.589,3197.893,3498.33,,660.589,3212.113,3501.78,,660.589,99.5573,0.999014,99.9014,100.017
662.64,3008.659,3293.04,,662.64,3008.504,3299.99,,662.64,100.005,0.997893,99.7893,99.9206
664.691,2833.222,3098.45,,664.691,2825.846,3101.62,,664.691,100.261,0.998979,99.8979,99.884
666.744,2663.498,2917.4,,666.744,2665.607,2917.05,,666.744,99.9209,1.00012,100.012,99.9085
668.798,2494.379,2741.45,,668.798,2508.898,2745.46,,668.798,99.4213,0.998542,99.8542,99.9066
670.853,2341.512,2573.54,,670.853,2354.692,2582.3,,670.853,99.4403,0.996608,99.6608,99.8535
672.909,2208.099,2418.01,,672.909,2213.672,2427.68,,672.909,99.7482,0.996017,99.6017,99.8106
674.965,2075.738,2274.07,,674.965,2086.494,2283.43,,674.965,99.4845,0.9959,99.59,99.7698
677.023,1943.436,2135.36,,677.023,1964.424,2148.24,,677.023,98.9316,0.994002,99.4002,99.6749
679.082,1828.579,2006.13,,679.082,1847.565,2022.54,,679.082,98.9724,0.991885,99.1885,99.5403
681.142,1707.926,1882.87,,681.142,1737.729,1903.79,,681.142,98.2849,0.989014,98.9014,99.3998
683.203,1592.254,1761.32,,683.203,1629.665,1789.43,,683.203,97.7044,0.984292,98.4292,99.2025
685.265,1499.008,1649.07,,685.265,1520.884,1678.67,,685.265,98.5616,0.982369,98.2369,98.9436
687.327,1399.576,1545.74,,687.327,1427.089,1572.32,,687.327,98.0721,0.983094,98.3094,98.7107
689.391,1313.957,1446.82,,689.391,1342.555,1474.85,,689.391,97.8699,0.981,98.1,98.492
691.456,1236.786,1359.12,,691.456,1266.909,1386.44,,691.456,97.6223,0.980293,98.0293,98.2913
693.522,1146.425,1272.05,,693.522,1181.382,1302.62,,693.522,97.041,0.976529,97.6529,98.1144
695.589,1070.394,1186.15,,695.589,1099.399,1217.94,,695.589,97.3617,0.9739,97.39,97.9574
697.657,1002.947,1108.37,,697.657,1034.453,1139.18,,697.657,96.9543,0.972961,97.2961,97.778
699.726,938.094,1037.16,,699.726,971.408,1066.88,,699.726,96.5705,0.972142,97.2142,97.5979
701.796,877.638,969.082,,701.796,917.503,1001.66,,701.796,95.6551,0.967474,96.7474,97.381
703.867,828.208,908.662,,703.867,861.064,943.417,,703.867,96.1843,0.963161,96.3161,97.1025
705.939,767.912,851.157,,705.939,804.537,885.41,,705.939,95.4477,0.961315,96.1315,96.854
708.012,717.371,794.274,,708.012,759.323,831.585,,708.012,94.4751,0.955133,95.5133,96.5461
710.085,669.253,742.217,,710.085,719.139,783.449,,710.085,93.0631,0.947371,94.7371,96.1106
712.16,625.488,692.995,,712.16,670.14,738.668,,712.16,93.3369,0.938167,93.8167,95.5445
714.236,582.652,645.152,,714.236,626.682,690.974,,714.236,92.9741,0.933685,93.3685,94.9769
716.313,541.321,601.007,,716.313,586.621,647.561,,716.313,92.2778,0.928109,92.8109,94.3624
718.391,504.698,560.336,,718.391,553.42,606.872,,718.391,91.1962,0.923317,92.3317,93.7138
720.47,471.408,522.57,,720.47,515.553,569.744,,720.47,91.4373,0.917202,91.7202,93.0842
722.55,438.927,486.962,,722.55,489.289,534.375,,722.55,89.7071,0.911274,91.1274,92.5267
724.631,412.818,454.679,,724.631,456.046,503.092,,724.631,90.5211,0.903769,90.3769,91.9394
726.713,388.281,426.511,,726.713,427.384,471.345,,726.713,90.8506,0.904881,90.4881,91.415
728.796,359.646,399.108,,728.796,406.484,444.036,,728.796,88.4773,0.898819,89.8819,90.9442
730.88,343.991,373.843,,730.88,378.822,417.772,,730.88,90.8054,0.89485,89.485,90.4621
732.965,315.763,350.635,,732.965,361.79,392.676,,732.965,87.278,0.892937,89.2937,90.0785
735.051,297.218,326.768,,735.051,344.187,371.911,,735.051,86.3536,0.878618,87.8618,89.6149
737.138,274.501,306.81,,737.138,327.822,352.608,,737.138,83.7348,0.870118,87.0118,89.0392
739.226,259.896,286.251,,739.226,309.223,335.6,,739.226,84.0481,0.852954,85.2954,88.1678
741.315,246.574,269.254,,741.315,291.064,317.051,,741.315,84.7147,0.849246,84.9246,87.3048
743.405,236.407,255.063,,743.405,276.402,299.691,,743.405,85.5301,0.851087,85.1087,86.451
745.496,223.187,243.135,,745.496,267.689,285.57,,745.496,83.3755,0.851404,85.1404,85.7977
747.588,209.616,229.247,,747.588,249.668,272.766,,747.588,83.9579,0.840452,84.0452,85.1819
749.681,200.011,216.707,,749.681,240.994,258.037,,749.681,82.9942,0.839829,83.9829,84.7507
751.775,184.1,204.368,,751.775,237.1,248.653,,751.775,77.6466,0.821901,82.1901,84.321
753.87,177.239,190.238,,753.87,228.541,240.406,,753.87,77.5524,0.791319,79.1319,83.3449
755.966,173.23,182.11,,755.966,222.743,232.847,,755.966,77.7712,0.782101,78.2101,82.0624
758.063,156.762,173.696,,758.063,209.387,224.581,,758.063,74.8671,0.773423,77.3423,80.75
760.161,141.566,161.187,,760.161,198.162,212.747,,760.161,71.4395,0.757646,75.7646,79.3009
762.26,145.247,152.195,,762.26,193.657,204.219,,762.26,75.0022,0.745256,74.5256,77.6276
764.36,131.327,145.762,,764.36,185.172,196.9,,764.36,70.9216,0.740281,74.0281,76.4066
766.461,124.13,135.183,,766.461,185.015,190.823,,766.461,67.0919,0.708424,70.8424,75.1013
768.562,119.005,128.372,,768.562,177.598,186.254,,768.562,67.0081,0.689231,68.9231,73.4891
770.665,115.106,122.585,,770.665,168.205,179.624,,770.665,68.432,0.68245,68.245,71.9164
772.769,115.153,118.83,,772.769,160.362,171.275,,772.769,71.8082,0.693796,69.3796,70.7924
774.874,106.598,114.88,,774.874,156.442,163.531,,774.874,68.139,0.702498,70.2498,69.9753
776.98,105.81,109.648,,776.98,157.256,159.793,,776.98,67.2852,0.686187,68.6187,69.2794
779.087,99.132,107.221,,779.087,150.343,156.351,,779.087,65.9372,0.685772,68.5772,69.0032
781.195,88.267,99.7439,,781.195,140.336,150.312,,781.195,62.8969,0.663581,66.3581,68.722
783.304,88.825,93.8997,,783.304,142.542,145.898,,783.304,62.315,0.643598,64.3598,68.0127
785.414,87.499,91.0739,,785.414,141.88,144.517,,785.414,61.6711,0.630194,63.0194,66.7703
787.525,87.239,89.2059,,787.525,138.395,142.375,,787.525,63.0362,0.626556,62.6556,65.4621
789.637,81.75,86.8774,,789.637,135.958,140.064,,789.637,60.1289,0.62027,62.027,64.2777
791.749,81.708,83.9245,,791.749,131.269,136.744,,791.749,62.2447,0.613736,61.3736,63.0813
793.863,74.298,80.9332,,793.863,129.371,132.71,,793.863,57.4302,0.60985,60.985,62.2927
795.978,70.841,76.389,,795.978,126.025,130.387,,795.978,56.2119,0.585865,58.5865,61.4556
798.094,63.634,71.6773,,798.094,126.645,128.492,,798.094,50.246,0.557834,55.7834,60.3126
800.211,69.428,68.9476,,800.211,120.724,126.79,,800.211,57.5097,0.543793,54.3793,58.7918
802.329,72.742,70.2404,,802.329,125.017,126.006,,802.329,58.1857,0.557435,55.7435,57.6348
804.448,69.084,70.0917,,804.448,123.93,125.476,,804.448,55.7444,0.558604,55.8604,56.6266
806.567,65.181,68.0146,,806.567,122.311,123.382,,806.567,53.2912,0.551252,55.1252,55.7803
808.688,60.234,64.0002,,808.688,118.367,122.129,,808.688,50.8875,0.524039,52.4039,55.0111
810.81,65.744,62.1586,,810.81,125.329,121.378,,810.81,52.4571,0.512107,51.2107,54.4052
812.933,68.481,65.785,,812.933,123.13,122.682,,812.933,55.6168,0.536225,53.6225,54.0013
815.057,59.13,64.8685,,815.057,120.642,120.862,,815.057,49.0128,0.536717,53.6717,53.6131
817.181,58.13,61.4062,,817.181,129.685,123.09,,817.181,44.824,0.498874,49.8874,52.7161
819.307,56.557,59.3172,,819.307,137.701,129.382,,819.307,41.0723,0.458467,45.8467,51.3744
821.434,57.337,57.9787,,821.434,141.814,134.579,,821.434,40.4311,0.430814,43.0814,49.8529
823.562,60.555,58.9285,,823.562,150.847,140.696,,823.562,40.1433,0.418834,41.8834,47.9671
825.69,51.857,57.586,,825.69,162.962,148.914,,825.69,31.8215,0.386707,38.6707,45.2846
827.82,54.36,55.0619,,827.82,184.395,161.474,,827.82,29.4802,0.340995,34.0995,42.1159
829.951,54.089,55.1773,,829.951,200.202,177.52,,829.951,27.0172,0.310823,31.0823,39.027
832.082,50.795,54.4752,,832.082,211.484,192.708,,832.082,24.0184,0.282682,28.2682,36.1066
834.215,41.24,50.7479,,834.215,217.983,204.276,,834.215,18.9189,0.248428,24.8428,32.9292
836.349,48.342,48.1234,,836.349,222.188,211.359,,836.349,21.7573,0.227686,22.7686,29.5545
838.483,48.911,48.182,,838.483,255.234,223.382,,838.483,19.1632,0.215693,21.5693,26.7839
840.619,49.513,48.1481,,840.619,308.756,252.75,,840.619,16.0363,0.190497,19.0497,24.3239
842.755,47.304,48.8184,,842.755,374.652,296.792,,842.755,12.6261,0.164487,16.4487,21.9213
844.893,45.605,47.4101,,844.893,464.696,359.307,,844.893,9.81394,0.131949,13.1949,19.5217
847.032,55.131,49.3164,,847.032,557.035,437.958,,847.032,9.89722,0.112605,11.2605,17.2777
849.171,53.97,52.9424,,849.171,661.057,525.484,,849.171,8.1642,0.10075,10.075,15.0278
851.312,61.236,55.7404,,851.312,756.098,619.683,,851.312,8.09895,0.0899499,8.99499,12.8965
853.453,53.802,58.1123,,853.453,857.691,715.358,,853.453,6.27289,0.0812353,8.12353,11.0879
855.596,50.809,55.2696,,855.596,945.06,813.531,,855.596,5.37627,0.0679379,6.79379,9.5864
857.739,44.105,50.8435,,857.739,1009.281,898.409,,857.739,4.36994,0.0565928,5.65928,8.40559
859.884,50.616,48.8191,,859.884,1085.862,977.02,,859.884,4.66137,0.0499673,4.99673,7.33289
862.029,45.915,49.5225,,862.029,1134.54,1048.31,,862.029,4.04701,0.0472401,4.72401,6.43979
864.175,43.194,46.9767,,864.175,1180.224,1104.7,,864.175,3.65981,0.0425243,4.25243,5.62462
866.323,39.924,44.2587,,866.323,1219.693,1154.71,,866.323,3.27328,0.0383287,3.83287,4.9502
868.471,37.621,40.8684,,868.471,1270.779,1200.42,,868.471,2.96047,0.0340452,3.40452,4.42537
870.621,35.608,38.32,,870.621,1328.341,1250.62,,870.621,2.68064,0.0306408,3.06408,4.01872
872.771,34.409,36.6544,,872.771,1407.639,1310.18,,872.771,2.44445,0.0279766,2.79766,3.63464
874.922,31.605,34.4635,,874.922,1501.233,1383.95,,874.922,2.10527,0.0249022,2.49022,3.27
877.075,34.534,34.4457,,877.075,1615.768,1472.94,,877.075,2.13731,0.0233857,2.33857,2.94854
879.228,32.915,35.2042,,879.228,1742.694,1578.64,,879.228,1.88874,0.0223003,2.23003,2.68738
881.382,29.73,33.266,,881.382,1861.847,1694.73,,881.382,1.5968,0.0196291,1.96291,2.4577
883.537,30.449,31.0199,,883.537,1967.351,1809.46,,883.537,1.54772,0.0171432,1.71432,2.23595
885.694,34.355,32.2558,,885.694,2063.009,1916.59,,885.694,1.66529,0.0168298,1.68298,2.04857
887.851,33.386,33.2934,,887.851,2128.935,2010.83,,887.851,1.5682,0.016557,1.6557,1.90755
890.009,34.03,33.4399,,890.009,2174.289,2085.22,,890.009,1.56511,0.0160366,1.60366,1.77878
892.168,33.23,33.5395,,892.168,2167.414,2133.41,,892.168,1.53316,0.0157211,1.57211,1.67773
894.328,34.104,33.3869,,894.328,2119.476,2141.3,,894.328,1.60908,0.0155919,1.55919,1.62486
896.489,41.381,36.2631,,896.489,2026.271,2108.09,,896.489,2.04222,0.0172019,1.72019,1.62013
898.651,37.436,38.2979,,898.651,1918.326,2037.89,,898.651,1.95149,0.0187929,1.87929,1.65253
900.815,40.97,38.1092,,900.815,1785.282,1942.55,,900.815,2.29488,0.0196181,1.96181,1.71044
902.979,39.205,38.6225,,902.979,1649.08,1825.48,,902.979,2.37739,0.0211574,2.11574,1.80257
905.144,37.757,38.2088,,905.144,1520.884,1700.28,,905.144,2.48257,0.022472,2.2472,1.92709
907.31,39.411,38.1894,,907.31,1390.411,1573.02,,907.31,2.83449,0.0242777,2.42777,2.07108
909.477,38.34,38.3623,,909.477,1272.518,1446.96,,909.477,3.01292,0.0265123,2.65123,2.22211
911.644,41.439,38.4753,,911.644,1161.269,1326.88,,911.644,3.56842,0.0289968,2.89968,2.39636
913.813,37.696,40.0645,,913.813,1069.772,1215.71,,913.813,3.52374,0.0329555,3.29555,2.61636
915.983,37.046,38.8375,,915.983,988.66,1118.11,,915.983,3.74709,0.0347349,3.47349,2.85064
918.154,39.76,38.9251,,918.154,909.367,1029.4,,918.154,4.37227,0.0378132,3.78132,3.10555
920.326,38.837,39.5681,,920.326,840.982,947.826,,920.326,4.61805,0.0417462,4.17462,3.39371
922.499,34.913,37.9978,,922.499,785.234,877.373,,922.499,4.44619,0.0433086,4.33086,3.68497
924.673,40.172,37.5526,,924.673,726.212,813.978,,924.673,5.53172,0.0461347,4.61347,3.94941
926.847,40.611,39.8113,,926.847,673.645,755.023,,926.847,6.02855,0.0527286,5.27286,4.26934
929.023,38.597,39.3845,,929.023,616.077,698.139,,929.023,6.26496,0.0564136,5.64136,4.6412
931.2,35.854,38.0646,,931.2,561.781,640.213,,931.2,6.3822,0.0594561,5.94561,4.99947
933.377,38.021,36.5125,,933.377,520.304,588.161,,933.377,7.30746,0.0620791,6.20791,5.35252
935.556,39.46,37.5386,,935.556,473.28,540.136,,935.556,8.33756,0.0694985,6.94985,5.78805
937.736,41.444,38.9122,,937.736,444.62,497.338,,937.736,9.32122,0.078241,7.8241,6.29785
939.916,44.428,40.1832,,939.916,412.505,461.97,,939.916,10.7703,0.0869822,8.69822,6.86046
942.098,46.411,42.7763,,942.098,382.026,427.176,,942.098,12.1486,0.100137,10.0137,7.58928
944.28,39.849,43.092,,944.28,357.638,396.484,,944.28,11.1423,0.108685,10.8685,8.47159
946.464,36.287,39.8756,,946.464,338.612,371.382,,946.464,10.7164,0.107371,10.7371,9.28846
948.648,38.543,38.3078,,948.648,323.405,350.131,,948.648,11.9179,0.10941,10.941,9.95425
950.834,39.616,38.5643,,950.834,304.379,331.288,,950.834,13.0154,0.116407,11.6407,10.5758
953.02,41.053,39.8492,,953.02,291.17,312.93,,953.02,14.0993,0.127342,12.7342,11.1793
955.207,40.671,40.8436,,955.207,282.78,299.394,,955.207,14.3826,0.136421,13.6421,11.7296
957.396,39.835,40.9146,,957.396,274.843,289.202,,957.396,14.4937,0.141474,14.1474,12.3244
959.585,39.362,41.5252,,959.585,262.27,278.682,,959.585,15.0082,0.149006,14.9006,13.047
961.775,35.979,39.9049,,961.775,258.151,268.507,,961.775,13.9372,0.148618,14.8618,13.7355
963.966,40.415,39.3487,,963.966,254.941,261.316,,963.966,15.8527,0.150579,15.0579,14.2577
966.159,41.85,40.0921,,966.159,249.184,255.731,,966.159,16.7948,0.156774,15.6774,14.7057
968.352,45.467,41.48,,968.352,245.245,251.243,,968.352,18.5394,0.165099,16.5099,15.1626
970.546,40.901,42.5333,,970.546,243.579,247.699,,970.546,16.7917,0.171713,17.1713,15.6794
972.741,36.699,40.3866,,972.741,247.457,246.404,,972.741,14.8305,0.163904,16.3904,16.0184
974.937,42.224,40.5057,,974.937,250.154,248.187,,974.937,16.8792,0.163206,16.3206,16.2882
977.134,41.475,42.4429,,977.134,255.304,251.319,,977.134,16.2453,0.168881,16.8881,16.5659
979.332,37.636,41.4612,,979.332,259.999,254.524,,979.332,14.4754,0.162897,16.2897,16.6678
981.531,38.977,39.2927,,981.531,265.33,259.407,,981.531,14.69,0.151471,15.1471,16.3759
983.731,42.137,40.1629,,983.731,271.115,263.446,,983.731,15.5421,0.152452,15.2452,16.0377
985.932,37.478,40.2383,,985.932,279.717,269.85,,985.932,13.3985,0.149114,14.9114,15.8225
988.134,41.092,40.4372,,988.134,288.592,276.398,,988.134,14.2388,0.146301,14.6301,15.4488
990.336,41.432,41.9428,,990.336,304.103,287.506,,990.336,13.6243,0.145885,14.5885,15.0372
992.54,45.863,43.1987,,992.54,312.703,299.062,,992.54,14.6666,0.144447,14.4447,14.7879
994.745,43.93,44.1706,,994.745,332.031,310.388,,994.745,13.2307,0.142307,14.2307,14.6376
996.951,40.905,42.566,,996.951,345.812,325.534,,996.951,11.8287,0.130757,13.0757,14.3045
999.157,41.244,41.4081,,999.157,349.411,336.816,,999.157,11.8039,0.12294,12.294,13.8788
1001.365,40.128,41.0112,,1001.365,361.555,346.187,,1001.365,11.0987,0.118465,11.8465,13.387
1003.573,45.466,41.5571,,1003.573,380.062,358.838,,1003.573,11.9628,0.11581,11.581,12.8516
1005.783,47.257,44.6854,,1005.783,394.568,373.644,,1005.783,11.9769,0.119593,11.9593,12.3687
1007.993,41.685,44.3584,,1007.993,413.801,388.537,,1007.993,10.0737,0.114168,11.4168,11.9733
1010.205,42.113,43.0378,,1010.205,445.124,410.293,,1010.205,9.46096,0.104895,10.4895,11.6089
1012.417,46.449,44.2351,,1012.417,471.173,434.633,,1012.417,9.85816,0.101776,10.1776,11.2528
1014.631,50.512,46.9497,,1014.631,504.404,462.228,,1014.631,10.0142,0.101573,10.1573,10.9617
1016.845,47.301,49.22,,1016.845,547.543,494.746,,1016.845,8.63877,0.0994854,9.94854,10.6334
1019.06,44.363,46.3128,,1019.06,593.226,534.401,,1019.06,7.47826,0.086663,8.6663,10.0973
1021.277,49.061,47.0699,,1021.277,641.091,577.026,,1021.277,7.65274,0.0815732,8.15732,9.56756
1023.494,47.031,48.3279,,1023.494,672.682,618.95,,1023.494,6.99157,0.0780805,7.80805,9.11402
1025.712,44.182,46.9654,,1025.712,700.636,653.562,,1025.712,6.30598,0.0718607,7.18607,8.5944
1027.931,43.787,44.9671,,1027.931,723.589,684.128,,1027.931,6.05136,0.065729,6.5729,7.96043
1030.151,47.028,45.2878,,1030.151,746.36,710.127,,1030.151,6.30098,0.0637742,6.37742,7.40125
1032.372,45.995,45.7029,,1032.372,762.675,733.866,,1032.372,6.03075,0.0622768,6.22768,7.00861
1034.594,44.599,45.7155,,1034.594,772.535,752.162,,1034.594,5.77307,0.0607788,6.07788,6.65113
1036.817,49.202,46.1524,,1036.817,784.121,766.641,,1036.817,6.2748,0.0602008,6.02008,6.36154
1039.041,48.35,47.3762,,1039.041,784.706,776.29,,1039.041,6.16154,0.061029,6.1029,6.20752
1041.266,47.769,47.093,,1041.266,789.018,782.075,,1041.266,6.05423,0.0602154,6.02154,6.12741
1043.492,45.734,46.5876,,1043.492,792.237,785.442,,1043.492,5.77277,0.0593138,5.93138,6.05842
1045.718,47.425,47.0458,,1045.718,793.002,788.197,,1045.718,5.98044,0.0596879,5.96879,6.01362
1047.946,47.571,47.0422,,1047.946,792.401,789.724,,1047.946,6.0034,0.0595679,5.95679,6.00305
1050.175,52.079,49.3011,,1050.175,793.436,791.619,,1050.175,6.56373,0.0622788,6.22788,6.01298
1052.405,48.495,50.4199,,1052.405,792.47,791.89,,1052.405,6.11947,0.0636703,6.36703,6.0675
1054.635,46.911,49.2459,,1054.635,785.776,789.36,,1054.635,5.97002,0.0623871,6.23871,6.11892
1056.867,43.054,47.4445,,1056.867,787.626,786.615,,1056.867,5.4663,0.0603148,6.03148,6.15241
1059.099,51.832,46.8454,,1059.099,787.384,785.817,,1059.099,6.58281,0.0596136,5.96136,6.14868
1061.333,56.609,50.8354,,1061.333,773.686,781.92,,1061.333,7.31679,0.0650136,6.50136,6.20521
1063.567,48.658,51.3357,,1063.567,766.806,775.044,,1063.567,6.34554,0.0662359,6.62359,6.26335
1065.802,50.707,49.4576,,1065.802,755.742,768.407,,1065.802,6.70956,0.0643639,6.43639,6.29547
1068.039,53.573,50.5972,,1068.039,747.405,760.279,,1068.039,7.16787,0.0665509,6.65509,6.37436
1070.276,59.075,53.4743,,1070.276,743.794,753.164,,1070.276,7.94239,0.0709995,7.09995,6.56529
1072.514,54.393,55.7,,1072.514,733.181,745.682,,1072.514,7.41877,0.0746968,7.46968,6.79663
1074.753,63.439,57.3349,,1074.753,730.386,738.361,,1074.753,8.68568,0.0776515,7.76515,6.99036
1076.993,70.574,63.0697,,1076.993,723.134,732.281,,1076.993,9.75946,0.0861277,8.61277,7.33671
1079.234,67.982,67.016,,1079.234,719.154,726.24,,1079.234,9.45305,0.0922781,9.22781,7.82315
1081.476,79.934,70.075,,1081.476,701.537,717.852,,1081.476,11.3941,0.0976177,9.76177,8.34057
1083.719,89.794,78.7532,,1083.719,693.645,707.543,,1083.719,12.9452,0.111305,11.1305,8.98204
1085.963,91.835,83.9693,,1085.963,682.57,697.588,,1085.963,13.4543,0.120371,12.0371,9.79049
1088.208,105.966,90.7448,,1088.208,679.494,689.411,,1088.208,15.5948,0.131627,13.1627,10.6746
1090.454,117.732,102.56,,1090.454,672.417,683.648,,1090.454,17.5088,0.150019,15.0019,11.7173
1092.772,136.043,114.981,,1092.772,662.701,676.076,,1092.772,20.5286,0.170071,17.0071,13.0426
1094.985,152.263,130.521,,1094.985,655.712,667.492,,1094.985,23.221,0.19554,19.554,14.6545
1097.197,163.208,145.641,,1097.197,655.176,661.371,,1097.197,24.9106,0.220211,22.0211,16.507
1099.409,171.789,157.321,,1099.409,648.729,656.29,,1099.409,26.4809,0.239713,23.9713,18.5883
1101.622,194.187,170.55,,1101.622,643.735,651.077,,1101.622,30.1657,0.26195,26.195,20.7795
1103.834,212.857,188.569,,1103.834,630.558,644.368,,1103.834,33.7569,0.292642,29.2642,23.1519
1106.047,223.343,203.257,,1106.047,617.47,634.861,,1106.047,36.1707,0.32016,32.016,25.6456
1108.259,237.284,216.601,,1108.259,604.108,622.5,,1108.259,39.2784,0.347953,34.7953,28.1709
1110.472,242.95,228.419,,1110.472,594.744,610.059,,1110.472,40.8495,0.374421,37.4421,30.7885
1112.684,254.707,239.599,,1112.684,588.197,601.125,,1112.684,43.303,0.398585,39.8585,33.4946
1114.897,261.098,249.954,,1114.897,576.102,592.421,,1114.897,45.3215,0.42192,42.192,36.1508
1117.109,275.853,260.105,,1117.109,572.643,583.804,,1117.109,48.1719,0.445534,44.5534,38.6777
1119.321,279.969,269.103,,1119.321,558.727,574.676,,1119.321,50.1084,0.468269,46.8269,41.1291
1121.534,290.903,276.787,,1121.534,542.991,561.379,,1121.534,53.5742,0.493048,49.3048,43.5062
1123.746,299.018,286.953,,1123.746,534.618,550.187,,1123.746,55.9312,0.521555,52.1555,45.9504
1125.959,298.858,293.641,,1125.959,521.969,539.044,,1125.959,57.2559,0.544744,54.4744,48.4088
1128.171,297.152,295.72,,1128.171,512.41,527.379,,1128.171,57.9911,0.560735,56.0735,50.7706
1130.384,297.991,296.708,,1130.384,505.941,517.299,,1130.384,58.8984,0.573572,57.3572,52.943
1132.596,297.192,297.366,,1132.596,492.015,507.577,,1132.596,60.403,0.585853,58.5853,54.9085
1134.809,303.937,299.852,,1134.809,476.541,494.825,,1134.809,63.7798,0.605977,60.5977,56.6767
1137.021,307.771,302.52,,1137.021,467.339,482.482,,1137.021,65.856,0.627008,62.7008,58.3605
1139.233,303.15,303.421,,1139.233,447.226,469.085,,1139.233,67.7845,0.646836,64.6836,60.0463
1141.446,293.71,300.054,,1141.446,436.474,453.839,,1141.446,67.2915,0.661146,66.1146,61.7768
1143.658,292.723,296.202,,1143.658,427.176,442.761,,1143.658,68.5252,0.668989,66.8989,63.4424
1145.871,291.371,293.979,,1145.871,417.603,433.352,,1145.871,69.7722,0.678384,67.8384,65.0153
1148.083,290.2,292.965,,1148.083,406.664,423.006,,1148.083,71.3611,0.692578,69.2578,66.4139
1150.296,284.755,291.989,,1150.296,397.997,412.288,,1150.296,71.547,0.708217,70.8217,67.7179
1152.508,280.673,287.033,,1152.508,378.873,399.405,,1152.508,74.081,0.71865,71.865,68.8734
1154.721,274.771,282.849,,1154.721,371.929,386.306,,1154.721,73.8773,0.73219,73.219,70.0906
1156.933,269.959,277.026,,1156.933,362.529,377.74,,1156.933,74.4655,0.733378,73.3378,71.219
1159.145,272.145,273.858,,1159.145,345.945,365.105,,1159.145,78.6671,0.750081,75.0081,72.3323
1161.358,267.513,271.855,,1161.358,337.269,352.556,,1161.358,79.3174,0.771099,77.1099,73.5649
1163.57,261.788,267.764,,1163.57,331.501,343.465,,1163.57,78.9705,0.779596,77.9596,74.8028
1165.783,250.244,262.277,,1165.783,320.367,334.68,,1165.783,78.1117,0.783664,78.3664,75.8995
1167.995,242.79,254.71,,1167.995,314.595,325.575,,1167.995,77.1754,0.782338,78.2338,76.8477
1170.208,241.517,249.14,,1170.208,309.912,318.454,,1170.208,77.9308,0.782343,78.2343,77.6682
1172.42,236.334,244.129,,1172.42,302.319,311.822,,1172.42,78.1737,0.782913,78.2913,78.1038
1174.633,230.877,237.915,,1174.633,293.452,303.95,,1174.633,78.6762,0.782745,78.2745,78.2474
1176.845,225.874,232.418,,1176.845,287.311,296.555,,1176.845,78.6166,0.783728,78.3728,78.2781
1179.057,216.415,225.718,,1179.057,269.168,287.512,,1179.057,80.4015,0.785072,78.5072,78.2925
1181.27,218.319,221.165,,1181.27,259.57,275.388,,1181.27,84.1079,0.803103,80.3103,78.581
1183.482,207.496,217.388,,1183.482,258.334,266.759,,1183.482,80.3208,0.81492,81.492,79.1735
1185.695,196.216,208.857,,1185.695,253.916,260.707,,1185.695,77.2759,0.801117,80.1117,79.6098
1187.907,191.846,201.26,,1187.907,251.678,256.108,,1187.907,76.2268,0.785839,78.5839,79.7179
1190.12,184.838,194.8,,1190.12,240.621,251.416,,1190.12,76.8171,0.77481,77.481,79.5906
1192.332,178.83,187.981,,1192.332,233.382,244.964,,1192.332,76.6254,0.767381,76.7381,79.1702
1194.545,167.276,180.333,,1194.545,223.506,236.57,,1194.545,74.8418,0.762282,76.2282,78.2699
1196.757,169.359,173.399,,1196.757,220.356,227.657,,1196.757,76.857,0.761671,76.1671,77.3188
1198.969,166.986,171.788,,1198.969,222.843,224.322,,1198.969,74.9344,0.765813,76.5813,76.7816
1201.182,157.431,166.699,,1201.182,222.693,224.009,,1201.182,70.6942,0.744161,74.4161,76.2441
1203.394,156.15,161.651,,1203.394,227.543,224.733,,1203.394,68.6244,0.719304,71.9304,75.4114
1205.607,146.05,156.453,,1205.607,221.393,224.578,,1205.607,65.9687,0.696652,69.6652,74.2413
1207.819,136.495,148.097,,1207.819,215.152,219.749,,1207.819,63.4412,0.67394,67.394,72.76
1210.032,130.76,140.037,,1210.032,210.821,215.869,,1210.032,62.0242,0.648712,64.8712,70.705
1212.244,118.388,131.545,,1212.244,206.855,212.013,,1212.244,57.2324,0.620457,62.0457,68.2789
1214.456,117.835,125.257,,1214.456,197.525,207.03,,1214.456,59.6557,0.605017,60.5017,65.8675
1216.669,113.647,120.822,,1216.669,185.106,198.968,,1216.669,61.3956,0.607245,60.7245,63.9055
1218.881,108.004,116.349,,1218.881,171.779,188.373,,1218.881,62.8738,0.617652,61.7652,62.4921
1221.094,100.454,109.885,,1221.094,151.726,174.676,,1221.094,66.2075,0.629078,62.9078,61.7951
1223.306,99.814,103.273,,1223.306,139.766,159.438,,1223.306,71.4151,0.647732,64.7732,61.8755
1225.519,102.72,101.88,,1225.519,124.081,145.808,,1225.519,82.7846,0.698725,69.8725,63.2509
1227.731,92.538,100.394,,1227.731,117.488,132.501,,1227.731,78.7638,0.757686,75.7686,65.8837
1229.944,82.811,93.1462,,1229.944,112.353,124.089,,1229.944,73.7061,0.750643,75.0643,68.6424
1232.156,81.632,86.7625,,1232.156,97.22,114.347,,1232.156,83.9663,0.758764,75.8764,71.1068
1234.368,78.818,83.4575,,1234.368,97.727,105.743,,1234.368,80.6512,0.789251,78.9251,73.8959
1236.581,67.824,78.4227,,1236.581,95.509,101.209,,1236.581,71.0132,0.774862,77.4862,76.0448
1238.793,70.288,73.5666,,1238.793,88.568,95.5963,,1238.793,79.3605,0.769555,76.9555,76.7607
1241.006,64.481,70.7317,,1241.006,82.539,89.3296,,1241.006,78.1219,0.791806,79.1806,77.2264
1242.586,60.316,67.0215,,1242.586,79.058,86.0609,,1242.586,76.2934,0.778768,77.8768,