File: public_html/data/backup/schreiberglass-Dunkel_Kobaltblau_7882.csv
wavelength_nm,intensity,intensity_smoothed,,wavelength_nm2,intensity_i0,intensity_i0_smoothed,,wavelength_nm3,,transmission,transmission_perc,transmission_perc_smoothed
173.232,1.319,#N/A,,173.232,19.372,#N/A,,173.232,6.8088,#N/A,#N/A,#N/A
175.084,3.168,1.76358,,175.084,33.69,22.9547,,175.084,9.40338,0.0768289,7.68289,#N/A
176.935,5.349,3.2899,,176.935,35.507,28.7339,,176.935,15.0646,0.114495,11.4495,#N/A
178.787,6.44,3.89686,,178.787,32.052,29.5431,,178.787,20.0923,0.131904,13.1904,#N/A
180.639,12.167,6.02321,,180.639,39.87,32.1451,,180.639,30.5167,0.187376,18.7376,#N/A
182.491,9.622,7.7822,,182.491,38.233,36.3785,,182.491,25.1667,0.213923,21.3923,#N/A
184.342,10.44,8.88736,,184.342,31.233,35.1993,,184.342,33.4262,0.252487,25.2487,16.659
186.194,9.44,9.52481,,186.194,35.141,34.1309,,186.194,26.8632,0.279067,27.9067,20.0615
188.046,12.076,10.016,,188.046,33.414,34.1736,,188.046,36.1405,0.293092,29.3092,23.0655
189.897,14.713,12.431,,189.897,31.959,33.1214,,189.897,46.0371,0.375317,37.5317,26.849
191.749,14.167,13.8709,,191.749,30.958,32.8964,,191.749,45.762,0.421653,42.1653,30.712
193.601,17.349,15.3151,,193.601,36.958,33.1093,,193.601,46.9425,0.462564,46.2564,34.8893
195.453,11.349,14.8449,,195.453,35.139,34.5047,,195.453,32.2974,0.430229,43.0229,38.1343
197.304,11.621,12.4881,,197.304,32.684,33.3048,,197.304,35.5556,0.374963,37.4963,40.0923
199.156,10.076,11.5721,,199.156,31.229,32.1767,,199.156,32.2649,0.359642,35.9642,40.8378
201.008,7.985,10.1198,,201.008,33.41,32.5906,,201.008,23.9,0.310512,31.0512,39.4372
202.86,11.349,10.1574,,202.86,33.046,32.9429,,202.86,34.343,0.308334,30.8334,36.9669
204.711,9.53,10.1589,,204.711,35.046,34.2754,,204.711,27.1928,0.29639,29.639,34.1874
206.563,16.258,11.3268,,206.563,39.227,35.2897,,206.563,41.4459,0.320967,32.0967,32.4936
208.415,19.621,15.0873,,208.415,44.135,39.2673,,208.415,44.4568,0.38422,38.422,32.3644
210.267,13.167,15.3453,,210.267,38.771,40.755,,210.267,33.961,0.376525,37.6525,33.2252
212.118,11.348,13.4917,,212.118,35.953,39.9513,,212.118,31.5634,0.337703,33.7703,34.0683
213.97,6.712,11.0767,,213.97,35.043,37.0852,,213.97,19.1536,0.298683,29.8683,34.1781
215.822,10.803,9.71945,,215.822,34.588,36.235,,215.822,31.2334,0.268234,26.8234,33.6794
217.673,7.348,9.94633,,217.673,38.315,36.4701,,217.673,19.1779,0.272726,27.2726,32.3513
219.525,6.984,8.99175,,219.525,36.314,37.2076,,219.525,19.2323,0.241664,24.1664,29.7172
221.377,5.075,7.9816,,221.377,33.314,35.1484,,221.377,15.2338,0.227083,22.7083,27.2233
223.229,6.257,6.37359,,223.229,30.586,34.7675,,223.229,20.4571,0.183321,18.3321,24.7045
225.08,14.348,7.97846,,225.08,30.312,31.8506,,225.08,47.3344,0.250496,25.0496,23.6043
226.932,15.711,12.7114,,226.932,40.857,34.2874,,226.932,38.4536,0.37073,37.073,24.8694
228.784,9.62,13.3022,,228.784,39.039,37.7254,,228.784,24.642,0.352606,35.2606,26.8474
230.636,7.893,10.8141,,230.636,38.674,39.4259,,230.636,20.4091,0.274289,27.4289,28.0583
232.487,12.439,10.5632,,232.487,34.674,37.3684,,232.487,35.8741,0.282676,28.2676,29.3271
234.339,17.529,13.9478,,234.339,39.219,37.2061,,234.339,44.6952,0.374879,37.4879,32.0545
236.191,11.257,14.8501,,236.191,38.855,38.0541,,236.191,28.9718,0.390236,39.0236,33.4909
238.043,12.075,12.566,,238.043,42.854,39.816,,238.043,28.1771,0.315602,31.5602,32.8336
239.894,13.984,12.7353,,239.894,50.49,43.6746,,239.894,27.6966,0.291594,29.1594,32.4347
241.746,11.711,13.3473,,241.746,58.489,49.6724,,241.746,20.0226,0.268707,26.8707,32.653
243.598,15.529,13.8713,,243.598,58.307,54.5294,,243.598,26.6332,0.254382,25.4382,31.4668
245.449,15.711,15.9034,,245.449,61.124,56.9949,,245.449,25.7035,0.279032,27.9032,29.2969
247.301,12.62,15.1237,,247.301,64.488,60.3314,,247.301,19.5695,0.250676,25.0676,27.5342
249.153,16.983,15.7606,,249.153,70.123,63.8932,,249.153,24.2189,0.246671,24.6671,26.3803
251.005,14.983,17.0233,,251.005,74.577,68.4614,,251.005,20.0906,0.248656,24.8656,25.6341
252.856,11.438,15.2716,,252.856,75.668,72.1496,,252.856,15.116,0.211666,21.1666,24.9613
254.681,20.347,15.1989,,254.681,82.758,75.8182,,254.681,24.5861,0.200465,20.0465,23.7073
256.513,23.892,19.6233,,256.513,84.939,79.6534,,256.513,28.1284,0.246359,24.6359,22.9913
258.347,19.256,20.7205,,258.347,79.12,81.0065,,258.347,24.3377,0.255788,25.5788,23.2266
260.181,15.71,18.9275,,260.181,79.574,78.8582,,260.181,19.7426,0.24002,24.002,23.1886
262.017,22.256,19.2003,,262.017,86.028,80.7691,,262.017,25.8706,0.237719,23.7719,23.2637
263.853,26.801,21.9715,,263.853,83.755,82.9695,,263.853,31.9993,0.264814,26.4814,24.349
265.691,23.074,23.8933,,265.691,81.118,83.0698,,265.691,28.445,0.287629,28.7629,25.5918
267.53,13.165,21.2362,,267.53,83.208,82.7602,,267.53,15.8218,0.256599,25.6599,25.8718
269.369,21.619,19.8578,,269.369,83.662,83.0511,,269.369,25.8409,0.239103,23.9103,25.6256
271.21,24.255,22.6422,,271.21,87.48,84.5473,,271.21,27.7263,0.267805,26.7805,26.0507
273.052,22.801,24.4518,,273.052,81.934,85.4352,,273.052,27.8285,0.286203,28.6203,26.5889
274.895,19.619,24.5343,,274.895,78.478,82.5038,,274.895,24.9994,0.297372,29.7372,26.8721
276.739,12.164,19.9849,,276.739,82.66,80.8835,,276.739,14.7157,0.247082,24.7082,26.5721
278.584,16.255,16.5898,,278.584,85.932,82.765,,278.584,18.9161,0.200444,20.0444,25.9929
280.431,19.437,17.3169,,280.431,83.295,83.2018,,280.431,23.3351,0.208131,20.8131,25.1048
282.278,17.346,18.2525,,282.278,85.294,83.2551,,282.278,20.3367,0.219236,21.9236,24.079
284.126,15.982,16.9388,,284.126,88.657,85.4949,,284.126,18.0268,0.198126,19.8126,22.4459
285.976,18.709,17.4099,,285.976,83.656,85.7767,,285.976,22.3642,0.202968,20.2968,20.9655
287.826,17.709,18.0093,,287.826,82.383,83.9464,,287.826,21.4959,0.214533,21.4533,20.7522
289.678,20.891,18.9669,,289.678,79.2,83.0632,,289.678,26.3775,0.228343,22.8343,21.1548
291.531,16.527,18.1756,,291.531,81.2,82.3258,,291.531,20.3534,0.220777,22.0777,21.3336
293.385,18.164,16.4616,,293.385,83.108,82.4176,,293.385,21.8559,0.199734,19.9734,21.1911
295.239,22.618,18.0847,,295.239,88.835,84.634,,295.239,25.4607,0.213681,21.3681,21.3748
297.095,21.618,20.6476,,297.095,81.652,85.6638,,297.095,26.4758,0.241031,24.1031,21.8456
298.952,18.254,20.801,,298.952,81.833,83.2325,,298.952,22.3064,0.249914,24.9914,22.4378
300.81,20.89,20.7382,,300.81,81.56,81.5078,,300.81,25.613,0.254432,25.4432,22.8541
302.669,23.527,22.7568,,302.669,83.559,82.7159,,302.669,28.1562,0.27512,27.512,23.9391
304.53,18.618,23.725,,304.53,86.377,84.3667,,304.53,21.5543,0.281213,28.1213,25.3831
306.391,12.799,19.9175,,306.391,81.558,85.6932,,306.391,15.6931,0.232428,23.2428,25.7684
308.253,15.89,17.265,,308.253,77.193,82.5594,,308.253,20.5848,0.209122,20.9122,25.0447
310.117,19.072,17.4792,,310.117,80.284,80.8732,,310.117,23.7557,0.216131,21.6131,24.3558
311.981,19.708,18.4164,,311.981,82.556,80.9298,,311.981,23.8723,0.22756,22.756,23.6456
313.847,18.163,18.6686,,313.847,87.373,81.8857,,313.847,20.7879,0.227984,22.7984,22.6449
315.713,21.072,19.0595,,315.713,91.463,85.5911,,315.713,23.0388,0.222681,22.2681,21.9279
317.581,18.344,19.1734,,317.581,90.19,88.5784,,317.581,20.3393,0.216457,21.6457,21.9766
319.45,20.072,19.5215,,319.45,89.644,89.3886,,319.45,22.3908,0.218389,21.8389,22.0953
321.319,23.435,21.1341,,321.319,82.188,88.1012,,321.319,28.5139,0.239884,23.9884,22.3199
323.19,18.526,22.0092,,323.19,84.46,86.0177,,323.19,21.9346,0.255868,25.5868,22.834
325.062,18.435,19.9211,,325.062,83.46,85.5423,,325.062,22.0884,0.23288,23.288,23.1327
326.935,23.798,20.2161,,326.935,85.55,84.6431,,326.935,27.8177,0.23884,23.884,23.4259
328.809,23.162,22.5302,,328.809,90.003,86.1662,,328.809,25.7347,0.261474,26.1474,24.2024
330.685,18.344,21.6746,,330.685,84.73,86.5262,,330.685,21.6499,0.250497,25.0497,24.7822
332.561,24.707,21.4142,,332.561,84.275,85.7221,,332.561,29.3171,0.249809,24.9809,24.7139
334.438,25.434,23.9218,,334.438,84.547,85.1362,,334.438,30.0827,0.280983,28.0983,25.2331
336.316,23.98,24.8442,,336.316,86.728,85.1043,,336.316,27.6497,0.291927,29.1927,26.3334
338.196,20.616,23.4461,,338.196,87.454,86.1917,,338.196,23.5735,0.272022,27.2022,26.8783
340.076,22.071,21.7835,,340.076,87.272,86.6237,,340.076,25.2899,0.251473,25.1473,26.8199
341.958,19.343,21.4452,,341.958,89.18,87.7807,,341.958,21.6898,0.244304,24.4304,26.8173
343.84,23.525,20.8294,,343.84,90.543,88.5763,,343.84,25.9821,0.235158,23.5158,26.2935
345.724,28.07,22.6036,,345.724,91.815,89.3781,,345.724,30.5723,0.252899,25.2899,25.5384
347.609,23.436,24.2371,,347.609,89.459,89.3094,,347.609,26.1975,0.271384,27.1384,25.2532
349.495,17.893,22.7437,,349.495,93.627,89.9856,,349.495,19.1109,0.252748,25.2748,25.2379
351.382,19.639,21.2588,,351.382,88.843,90.5661,,351.382,22.1053,0.234733,23.4733,25.0204
353.269,23.049,22.2496,,353.269,93.573,90.4043,,353.269,24.6321,0.246112,24.6112,25.0805
355.158,23.634,22.8981,,355.158,96.749,92.356,,355.158,24.4282,0.247933,24.7933,25.2001
357.048,27.009,24.0886,,357.048,99.65,95.0671,,357.048,27.1039,0.253385,25.3385,24.9323
358.94,28.685,26.1524,,358.94,98.941,97.5787,,358.94,28.992,0.268014,26.8014,24.8854
360.832,29.621,27.4988,,360.832,101.901,98.6542,,360.832,29.0684,0.27874,27.874,25.5164
362.725,36.021,29.6891,,362.725,105.458,101.011,,362.725,34.1567,0.293921,29.3921,26.4636
364.619,33.142,31.4492,,364.619,101.394,103.29,,364.619,32.6864,0.304473,30.4473,27.4758
366.515,31.537,31.6915,,366.515,105.344,103.188,,366.515,29.9372,0.307123,30.7123,28.5417
368.411,30.045,31.75,,368.411,107.973,105.209,,368.411,27.8264,0.301781,30.1781,29.3727
370.308,29.504,29.3037,,370.308,107.574,106.432,,370.308,27.4267,0.275328,27.5328,29.5657
372.207,33.674,31.0415,,372.207,109.207,108.154,,372.207,30.835,0.287012,28.7012,29.5302
374.107,34.603,32.0387,,374.107,105.746,107.353,,374.107,32.7228,0.298443,29.8443,29.4469
376.007,40.564,34.7971,,376.007,116.159,108.759,,376.007,34.9211,0.319946,31.9946,29.5916
377.909,41.794,37.9753,,377.909,120.542,113.575,,377.909,34.6717,0.334362,33.4362,30.0438
379.812,42.179,40.084,,379.812,118.467,116.59,,379.812,35.604,0.343803,34.3803,31.0215
381.716,38.901,39.2674,,381.716,114.164,116.666,,381.716,34.0747,0.336581,33.6581,32.184
383.62,39.372,39.6966,,383.62,117.663,117.335,,383.62,33.4617,0.338319,33.8319,33.0704
385.526,32.997,37.4905,,385.526,126.349,119.584,,385.526,26.1158,0.313506,31.3506,33.3935
387.433,44.142,37.5465,,387.433,123.393,123.038,,387.433,35.7735,0.305163,30.5163,32.9628
389.341,55.549,44.1811,,389.341,126.559,123.366,,389.341,43.8918,0.358131,35.8131,33.061
391.25,55.229,49.5501,,391.25,135.632,127.709,,391.25,40.7197,0.387992,38.7992,33.8427
393.161,64.718,55.1384,,393.161,147.268,133.945,,393.161,43.9457,0.411648,41.1648,35.0777
395.072,79.203,63.6969,,395.072,168.081,146.483,,395.072,47.1219,0.434842,43.4842,36.8705
396.984,108.55,78.5946,,396.984,196.506,164.926,,396.984,55.24,0.476544,47.6544,39.8612
398.897,148.26,104.106,,398.897,244.17,193.507,,398.897,60.72,0.537996,53.7996,43.5144
400.812,199.654,139.214,,400.812,307.693,235.647,,400.812,64.8874,0.590772,59.0772,47.3267
402.727,269.094,187.213,,402.727,400.782,295.019,,402.727,67.1422,0.63458,63.458,51.6049
404.644,368.814,254.61,,404.644,535.775,382.114,,404.644,68.8375,0.666321,66.6321,56.0922
406.561,528.08,351.645,,406.561,730.803,509.205,,406.561,72.2602,0.690577,69.0577,60.5089
408.48,758.186,499.695,,408.48,1021.145,694.926,,408.48,74.2486,0.719062,71.9062,64.4355
410.4,1066.025,708.236,,410.4,1452.911,968.406,,410.4,73.3717,0.731342,73.1342,67.6092
412.32,1496.689,998.755,,412.32,2070.227,1369.03,,412.32,72.2959,0.729536,72.9536,69.877
414.242,2095.016,1402.6,,414.242,2939.2,1943.03,,414.242,71.2784,0.721863,72.1863,71.3082
416.165,2899.999,1958.77,,416.165,4112.633,2746.6,,416.165,70.5144,0.713162,71.3162,72.0613
418.089,3951.993,2704.8,,418.089,5705.194,3845.15,,418.089,69.2701,0.703431,70.3431,72.1239
420.014,5267.792,3676.41,,420.014,7809.094,5328.01,,420.014,67.4571,0.690017,69.0017,71.5165
421.939,6886.138,4903.9,,421.939,10487.644,7275.23,,421.939,65.6595,0.674054,67.4054,70.5239
423.866,8808.489,6414.06,,423.866,13764.393,9756.34,,423.866,63.9948,0.657425,65.7425,69.3095
425.795,11000.439,8210.83,,425.795,17656.791,12809.7,,425.795,62.3015,0.640986,64.0986,67.9372
427.724,13454.561,10279,,427.724,22181.078,16466.7,,427.724,60.6578,0.624232,62.4232,66.4184
429.654,16121.262,12603.4,,429.654,27351.265,20737,,429.654,58.9416,0.607776,60.7776,64.7968
431.585,19015.914,15164.3,,431.585,33285.158,25669.4,,431.585,57.1303,0.590753,59.0753,63.1376
433.517,22173.019,17965.1,,433.517,39884.594,31296.3,,433.517,55.5929,0.574032,57.4032,61.4683
435.451,25610.166,21023.8,,435.451,47143.109,37597.2,,435.451,54.3243,0.559184,55.9184,59.8217
437.385,29098.667,24311.4,,437.385,54434.033,44457.5,,437.385,53.4568,0.546846,54.6846,58.2399
439.32,32195.522,27628,,439.32,60243.57,51246.6,,439.32,53.4423,0.539118,53.9118,56.7975
441.257,34199.327,30586.4,,441.257,63057.251,56809.8,,441.257,54.2354,0.5384,53.84,55.617
443.194,34311.923,32603.2,,443.194,62937.998,60139.8,,443.194,54.517,0.542123,54.2123,54.814
445.133,32215.944,33056.2,,445.133,61193.827,61214.9,,445.133,52.6457,0.540003,54.0003,54.3181
447.072,28318.233,31690.7,,447.072,57512.632,60395.7,,447.072,49.2383,0.524717,52.4717,53.8687
449.013,23382.972,28694.3,,449.013,50613.182,57272.4,,449.013,46.1994,0.501015,50.1015,53.206
450.955,18526.709,24661.1,,450.955,41975.067,51614.2,,450.955,44.1374,0.477796,47.7796,52.1846
452.897,14417.089,20373.2,,452.897,34059.554,44507.7,,452.897,42.3291,0.457746,45.7746,50.7344
454.841,11266.365,16422.3,,454.841,27745.913,37380.7,,454.841,40.6055,0.439326,43.9326,48.8879
456.786,8918.255,13103.6,,456.786,22921.571,31061.9,,456.786,38.9077,0.421855,42.1855,46.8507
458.732,7147.16,10445.9,,458.732,19248.14,25831.9,,458.732,37.1317,0.404379,40.4379,44.8562
460.679,5741.81,8352.08,,460.679,16354.743,21633,,460.679,35.1079,0.38608,38.608,42.9753
462.627,4594.265,6687.14,,462.627,13872.676,18231.7,,462.627,33.1174,0.366786,36.6786,41.1465
464.576,3648.436,5346.6,,464.576,11728.808,15397.6,,464.576,31.1066,0.347236,34.7236,39.3127
466.526,2881.211,4258.6,,466.526,9934.298,13011.9,,466.526,29.0027,0.327286,32.7286,37.4442
468.477,2268.651,3376.61,,468.477,8502.236,11025.8,,468.477,26.683,0.306246,30.6246,35.5134
470.429,1794.212,2670.49,,470.429,7363.688,9405.6,,470.429,24.3657,0.283926,28.3926,33.5027
472.382,1429.177,2114.36,,472.382,6502.234,8109.32,,472.382,21.9798,0.260732,26.0732,31.413
474.336,1152.221,1682.21,,474.336,5844.546,7096.97,,474.336,19.7145,0.237032,23.7032,29.2451
476.292,946.37,1351.06,,476.292,5343.422,6310.11,,476.292,17.7109,0.214111,21.4111,27.0095
478.248,786.155,1098.09,,478.248,4960.583,5704.02,,478.248,15.848,0.192511,19.2511,24.7438
480.205,657.994,900.86,,480.205,4673.005,5237.81,,480.205,14.0807,0.171992,17.1992,22.4928
482.164,555.287,746.784,,482.164,4481.539,4889.84,,482.164,12.3905,0.152722,15.2722,20.3007
484.123,475.592,624.778,,484.123,4395.281,4648.59,,484.123,10.8205,0.134402,13.4402,18.2002
486.083,416.024,530.968,,486.083,4432.828,4520.15,,486.083,9.38507,0.117467,11.7467,16.2167
488.045,375.84,460.668,,488.045,4610.368,4514.47,,488.045,8.15206,0.102043,10.2043,14.3547
490.007,344.796,407.951,,490.007,4925.802,4639.4,,490.007,6.99979,0.0879317,8.79317,12.6196
491.971,328.444,370.522,,491.971,5378.403,4897.99,,491.971,6.10672,0.0756477,7.56477,11.018
493.936,316.479,345.083,,493.936,5936.261,5285.32,,493.936,5.33129,0.0652908,6.52908,9.56826
495.901,316.525,329.998,,495.901,6601.205,5789.11,,495.901,4.79496,0.0570032,5.70032,8.28467
497.868,305.935,321.182,,497.868,7369.365,6403.65,,497.868,4.15144,0.050156,5.0156,7.17498
499.836,293.838,309.723,,499.836,8224.39,7121.8,,499.836,3.57276,0.0434895,4.34895,6.21872
501.804,281.25,298.599,,501.804,9125.372,7925.1,,501.804,3.08207,0.0376776,3.76776,5.40142
503.774,271.64,288.021,,503.774,10055.42,8786.79,,503.774,2.70143,0.0327788,3.27788,4.70183
505.745,242.732,273.017,,505.745,11001.973,9692.89,,505.745,2.20626,0.0281667,2.81667,4.09537
507.717,217.988,249.908,,507.717,11935.339,10610.4,,507.717,1.82641,0.0235531,2.35531,3.54311
509.69,197.307,228.414,,509.69,12884.921,11544.4,,509.69,1.5313,0.0197856,1.97856,3.04294
511.664,179.567,207.67,,511.664,13774.941,12472.2,,511.664,1.30358,0.0166507,1.66507,2.59953
513.639,165.3,188.979,,513.639,14632.225,13374,,513.639,1.1297,0.0141303,1.41303,2.20815
515.615,155.003,173.448,,515.615,15392.368,14228.9,,515.615,1.00701,0.0121899,1.21899,1.86555
517.592,141.804,160.599,,517.592,16059.305,15008.3,,517.592,0.883002,0.0107007,1.07007,1.58138
519.57,126.464,147.082,,519.57,16675.782,15717.7,,519.57,0.758369,0.00935774,0.935774,1.35174
521.549,110.182,132.548,,521.549,17207.023,16358.4,,521.549,0.640332,0.00810274,0.810274,1.16397
523.529,100.586,118.225,,523.529,17655.578,16920.3,,523.529,0.569712,0.00698718,0.698718,1.00829
525.51,89.214,106.356,,525.51,18014.552,17401.4,,525.51,0.495233,0.00611193,0.611193,0.877833
527.493,79.504,94.4702,,527.493,18306.536,17801.1,,527.493,0.434293,0.005307,0.5307,0.764211
529.476,80.295,86.3121,,529.476,18493.465,18119.2,,529.476,0.43418,0.00476357,0.476357,0.665431
531.46,76.14,82.2824,,531.46,18579.761,18340.9,,531.46,0.409801,0.00448629,0.448629,0.585145
533.446,66.71,75.9426,,533.446,18621.056,18478.8,,533.446,0.35825,0.00410972,0.410972,0.521308
535.432,74.283,72.5757,,535.432,18656.156,18564,,535.432,0.398169,0.00390948,0.390948,0.470892
537.419,76.019,74.79,,537.419,18589.524,18595.8,,537.419,0.408935,0.00402188,0.402188,0.437234
539.408,78.166,76.0848,,539.408,18555.23,18585.3,,539.408,0.421261,0.00409382,0.409382,0.418841
541.397,90.001,80.3604,,541.397,18474.988,18555.5,,541.397,0.487151,0.00433082,0.433082,0.411453
543.388,92.301,85.777,,543.388,18355.046,18478.9,,543.388,0.502864,0.00464188,0.464188,0.415797
545.379,99.983,91.0933,,545.379,18248.544,18389.5,,545.379,0.547896,0.00495354,0.495354,0.432275
547.372,114.886,100.031,,547.372,18138.685,18289,,547.372,0.633376,0.00546944,0.546944,0.458017
549.365,126.997,110.394,,549.365,18001.624,18180.9,,549.365,0.705475,0.00607195,0.607195,0.492992
551.36,139.385,122.021,,551.36,17827.735,18043.2,,551.36,0.781844,0.00676275,0.676275,0.53792
553.356,150.618,134.105,,553.356,17631.285,17879.9,,553.356,0.854266,0.00750031,0.750031,0.591098
555.352,162.755,144.902,,555.352,17438.845,17704,,555.352,0.93329,0.0081847,0.81847,0.652055
557.35,173.249,156.775,,557.35,17194.424,17508.3,,557.35,1.00759,0.00895435,0.895435,0.719819
559.349,166.865,163.89,,559.349,16964.953,17284.3,,559.349,0.983587,0.00948204,0.948204,0.788872
561.348,160.355,163.757,,561.348,16724.541,17056.8,,561.348,0.958801,0.00960068,0.960068,0.849911
563.349,145.772,159.032,,563.349,16486.156,16821.8,,563.349,0.884209,0.00945394,0.945394,0.896038
565.351,118.095,145.843,,565.351,16210.355,16578.2,,565.351,0.728516,0.00879726,0.879726,0.91918
567.354,93.107,124.886,,567.354,15947.232,16321.1,,567.354,0.583844,0.00765184,0.765184,0.909201
569.358,87.363,107.401,,569.358,15647.003,16051.9,,569.358,0.558337,0.00669083,0.669083,0.865434
571.363,77.122,93.8148,,571.363,15345.241,15765.6,,571.363,0.502579,0.00595059,0.595059,0.801017
573.368,63.509,80.5889,,573.368,15002.594,15459.4,,573.368,0.42332,0.00521293,0.521293,0.722609
575.375,50.594,67.7402,,575.375,14677.251,15137.4,,575.375,0.34471,0.00447504,0.447504,0.637096
577.383,36.323,54.6414,,577.383,14388.348,14825.5,,577.383,0.252447,0.00368563,0.368563,0.553862
579.392,38.94,45.5951,,579.392,14080.889,14521.4,,579.392,0.276545,0.00313986,0.313986,0.479701
581.402,30.833,41.0697,,581.402,13725.902,14199,,581.402,0.224634,0.00289244,0.289244,0.415747
583.413,24.578,34.3382,,583.413,13385.451,13863.4,,583.413,0.183617,0.0024769,0.24769,0.35836
585.425,29.291,30.6173,,585.425,13055.171,13529.6,,585.425,0.224363,0.00226298,0.226298,0.309046
587.439,26.906,30.2093,,587.439,12719.47,13200.2,,587.439,0.211534,0.00228855,0.228855,0.273574
589.453,23.094,26.9114,,589.453,12355.016,12856.6,,589.453,0.18692,0.0020932,0.20932,0.249851
591.468,23.09,24.6622,,591.468,12020.007,12510.8,,591.468,0.192096,0.00197128,0.197128,0.229752
593.484,23.141,24.6139,,593.484,11629.292,12156.6,,593.484,0.198989,0.00202474,0.202474,0.21613
595.501,20.817,23.1667,,595.501,11274.682,11787.3,,595.501,0.184635,0.00196539,0.196539,0.209086
597.519,23.269,23.0641,,597.519,10930.996,11434.4,,597.519,0.212872,0.00201709,0.201709,0.203807
599.539,24.831,23.2998,,599.539,10548.047,11075.8,,599.539,0.235409,0.00210367,0.210367,0.201287
601.559,27.048,25.8495,,601.559,10176.811,10704.1,,601.559,0.265781,0.00241493,0.241493,0.206675
603.58,20.233,25.5376,,603.58,9808.491,10337.4,,603.58,0.20628,0.0024704,0.24704,0.215754
605.602,23.454,24.215,,605.602,9418.219,9963.64,,605.602,0.249028,0.00243034,0.243034,0.223461
607.626,22.56,23.8871,,607.626,9057.409,9587.64,,607.626,0.249078,0.00249144,0.249144,0.232746
609.65,26.426,24.342,,609.65,8698.072,9220.02,,609.65,0.303814,0.00264012,0.264012,0.242479
611.675,29.741,26.3696,,611.675,8328.233,8854.71,,611.675,0.357111,0.00297804,0.297804,0.254673
613.702,28.883,27.0098,,613.702,7979.385,8490.38,,613.702,0.36197,0.00318122,0.318122,0.267512
615.729,32.336,28.6521,,615.729,7646.662,8140.66,,615.729,0.422877,0.00351963,0.351963,0.286366
617.757,26.065,29.8527,,617.757,7328.948,7802.55,,617.757,0.355644,0.00382602,0.382602,0.311649
619.787,22.744,27.1081,,619.787,7025.484,7482.23,,619.787,0.323736,0.003623,0.3623,0.333648
621.817,22.129,24.5441,,621.817,6663.205,7153.51,,621.817,0.332107,0.00343106,0.343106,0.346985
623.849,21.05,23.4133,,623.849,6369.927,6819.25,,623.849,0.330459,0.00343341,0.343341,0.353325
625.881,22.876,23.2319,,625.881,6094.137,6517.8,,625.881,0.375377,0.00356438,0.356438,0.357149
627.915,22.321,22.4948,,627.915,5795.847,6222.34,,627.915,0.385121,0.00361517,0.361517,0.354882
629.949,21.752,22.3538,,629.949,5497.842,5923.01,,629.949,0.395646,0.00377406,0.377406,0.354355
631.985,19.658,21.1302,,631.985,5232.336,5631.12,,631.985,0.375702,0.0037524,0.37524,0.359257
634.021,19.729,19.4412,,634.021,4994.07,5361.63,,634.021,0.395049,0.00362598,0.362598,0.36359
636.059,17.979,18.9143,,636.059,4766.117,5113.6,,636.059,0.377225,0.00369883,0.369883,0.367946
638.098,16.768,17.1461,,638.098,4517.577,4868.13,,638.098,0.371172,0.00352212,0.352212,0.368372
640.137,20.512,17.7525,,640.137,4288.097,4626.12,,640.137,0.478347,0.00383745,0.383745,0.369215
642.178,15.302,18.1256,,642.178,4068.039,4392.94,,642.178,0.376152,0.00412608,0.412608,0.375351
644.219,19.873,17.4322,,644.219,3855.442,4169.94,,644.219,0.515453,0.00418045,0.418045,0.38357
646.262,20.554,19.6235,,646.262,3658.495,3957.4,,646.262,0.561816,0.00495868,0.495868,0.403188
648.306,25.157,20.4602,,648.306,3464.138,3752.83,,648.306,0.726212,0.00545195,0.545195,0.433716
650.35,29.616,24.4408,,650.35,3273.988,3551.52,,650.35,0.904585,0.0068818,0.68818,0.486625
652.396,28.733,26.9974,,652.396,3100.836,3361.83,,652.396,0.926621,0.00803057,0.803057,0.555929
654.443,26.436,26.8045,,654.443,2921.358,3180.81,,654.443,0.904922,0.00842692,0.842692,0.63757
656.49,20.906,24.8612,,656.49,2753.059,3000.92,,656.49,0.759373,0.00828454,0.828454,0.711529
658.539,21.783,23.0513,,658.539,2599.362,2830.31,,658.539,0.838013,0.00814445,0.814445,0.768732
660.589,25.722,23.7839,,660.589,2455.779,2672.75,,660.589,1.04741,0.00889866,0.889866,0.818403
662.64,26.498,24.6106,,662.64,2312.357,2524.22,,662.64,1.14593,0.00974978,0.974978,0.858499
664.691,23.423,25.133,,664.691,2173.615,2378.41,,664.691,1.07761,0.0105672,1.05672,0.897673
666.744,25.424,25.124,,666.744,2040.62,2237,,666.744,1.2459,0.0112311,1.12311,0.945501
668.798,30.11,26.0083,,668.798,1920.246,2104.74,,668.798,1.56803,0.012357,1.2357,1.01663
670.853,31.716,28.983,,670.853,1803.858,1979.23,,670.853,1.75823,0.0146436,1.46436,1.12222
672.909,26.001,28.569,,672.909,1709.54,1863.79,,672.909,1.52094,0.0153284,1.53284,1.2346
674.965,30.426,28.8377,,674.965,1606.44,1757.95,,674.965,1.894,0.0164042,1.64042,1.3436
677.023,31.318,29.7013,,677.023,1511.369,1653.16,,677.023,2.07216,0.0179663,1.79663,1.47132
679.082,35.559,31.1837,,679.082,1424.436,1557.02,,679.082,2.49636,0.0200278,2.00278,1.62145
681.142,45.937,35.4162,,681.142,1322.742,1461.36,,681.142,3.47286,0.0242351,2.42351,1.80282
683.203,59.125,44.6762,,683.203,1254.116,1371.04,,683.203,4.71448,0.0325855,3.25855,2.08636
685.265,65.736,54.1529,,685.265,1179.629,1292.23,,685.265,5.5726,0.0419064,4.19064,2.53624
687.327,76.041,62.7039,,687.327,1104.938,1213.33,,687.327,6.88192,0.0516792,5.16792,3.13499
689.391,90.916,73.4657,,689.391,1043.367,1141.15,,689.391,8.71371,0.0643789,6.43789,3.92389
691.456,107.384,86.9724,,691.456,979.101,1073.44,,691.456,10.9676,0.0810219,8.10219,4.95508
693.522,118.133,100.776,,693.522,920.032,1009.65,,693.522,12.8401,0.0998122,9.98122,6.21937
695.589,139.097,115.051,,695.589,866.953,948.17,,695.589,16.0444,0.12134,12.134,7.69736
697.657,156.982,132.103,,697.657,814.832,891.84,,697.657,19.2656,0.148124,14.8124,9.48262
699.726,168.517,147.683,,699.726,764.473,838.303,,699.726,22.0436,0.176169,17.6169,11.5914
701.796,183.198,161.896,,701.796,726.592,789.986,,701.796,25.2133,0.204936,20.4936,13.9625
703.867,186.433,174.432,,703.867,677.987,744.417,,703.867,27.498,0.234321,23.4321,16.5542
705.939,198.65,183.849,,705.939,647.077,701.379,,705.939,30.6996,0.262125,26.2125,19.3054
708.012,201.91,193.077,,708.012,604.308,662.696,,708.012,33.4118,0.29135,29.135,22.1513
710.085,198.802,196.322,,710.085,570.329,623.725,,710.085,34.8574,0.314757,31.4757,24.959
712.16,196.245,197.035,,712.16,539.844,588.761,,712.16,36.3522,0.33466,33.466,27.6245
714.236,197.151,197.642,,714.236,511.659,556.524,,714.236,38.5317,0.355136,35.5136,30.1107
716.313,187.417,195.586,,716.313,478.551,526.21,,716.313,39.1634,0.371689,37.1689,32.4079
718.391,184.98,190.381,,718.391,452.734,495.41,,718.391,40.8584,0.384291,38.4291,34.4062
720.47,183.986,188.12,,720.47,418.83,464.811,,720.47,43.9286,0.404723,40.4723,36.2204
722.55,176.401,183.78,,722.55,391.589,433.196,,722.55,45.0475,0.424243,42.4243,38.0201
724.631,168.549,177.774,,724.631,374.361,406.446,,724.631,45.0231,0.437386,43.7386,39.7394
726.713,153.342,169.133,,726.713,354.602,384.824,,726.713,43.2434,0.439507,43.9507,41.1885
728.796,145.444,158.716,,728.796,341.466,365.659,,728.796,42.594,0.434056,43.4056,42.2989
730.88,141.452,150.522,,730.88,327.674,349.482,,730.88,43.1685,0.4307,43.07,43.0376
732.965,134.01,143.809,,732.965,310.396,333.134,,732.965,43.1739,0.431684,43.1684,43.3858
735.051,128.187,137.472,,735.051,297.457,317.468,,735.051,43.0943,0.433027,43.3027,43.4345
737.138,122.897,131.028,,737.138,281.755,303.655,,737.138,43.6184,0.431503,43.1503,43.3037
739.226,112.928,124.848,,739.226,272.333,289.817,,739.226,41.4669,0.430781,43.0781,43.2136
741.315,111.146,117.508,,741.315,265.377,279.963,,741.315,41.8823,0.419728,41.9728,43.0519
743.405,111.574,115.93,,743.405,255.419,269.041,,743.405,43.6827,0.430901,43.0901,42.9608
745.496,102.727,111.741,,745.496,249.917,259.515,,745.496,41.1044,0.430575,43.0575,42.9446
747.588,96.228,105.509,,747.588,236.862,251.014,,747.588,40.6262,0.42033,42.033,42.7562
749.681,92.527,99.7875,,749.681,227.883,241.189,,749.681,40.6029,0.413732,41.3732,42.4269
751.775,87.983,95.4607,,751.775,220.625,232.002,,751.775,39.879,0.411465,41.1465,42.1587
753.87,82.614,90.5949,,753.87,216.843,224.531,,753.87,38.0985,0.403484,40.3484,41.8354
755.966,78.851,85.5668,,755.966,208.966,217.996,,755.966,37.7339,0.392515,39.2515,41.1198
758.063,69.003,79.5109,,758.063,195.128,209.832,,758.063,35.3629,0.378927,37.8927,40.3319
760.161,67.111,72.8999,,760.161,183.156,199.423,,760.161,36.6414,0.365554,36.5554,39.4081
762.26,62.77,69.6212,,762.26,171.56,187.901,,762.26,36.5878,0.370521,37.0521,38.5822
764.36,63.215,66.2239,,764.36,174.316,179.93,,764.36,36.2646,0.368053,36.8053,37.8208
766.461,64.706,65.1296,,766.461,174.35,176.433,,766.461,37.1127,0.369146,36.9146,37.2719
768.562,59.693,64.0309,,768.562,175.116,175.376,,768.562,34.0877,0.365105,36.5105,36.8808
770.665,55.929,61.1932,,770.665,174.177,175.286,,770.665,32.1104,0.349106,34.9106,36.5561
772.769,50.407,57.2436,,772.769,166.977,172.477,,772.769,30.188,0.331891,33.1891,35.9729
774.874,53.952,54.954,,774.874,158.966,167.045,,774.874,33.9393,0.328978,32.8978,35.1911
776.98,54.015,54.4176,,776.98,155.872,161.839,,776.98,34.6534,0.336245,33.6245,34.5367
779.087,52.322,53.764,,779.087,156.805,158.42,,779.087,33.3676,0.339376,33.9376,33.984
781.195,47.623,51.5915,,781.195,156.194,157.349,,781.195,30.4896,0.327879,32.7879,33.4909
783.304,48.179,49.4635,,783.304,147.827,153.492,,783.304,32.5915,0.322255,32.2255,33.1172
785.414,47.928,48.5614,,785.414,144.526,149.549,,785.414,33.1622,0.324718,32.4718,33.0415
787.525,41.134,45.3728,,787.525,139.035,145.191,,787.525,29.5854,0.312504,31.2504,32.785
789.637,41.513,43.4419,,789.637,139.446,141.858,,789.637,29.7699,0.306234,30.6234,32.1912
791.749,44.557,45.0996,,791.749,141.085,142.088,,791.749,31.5817,0.317407,31.7407,31.7469
793.863,41.726,44.5221,,793.863,132.96,139.848,,793.863,31.3824,0.31836,31.836,31.6597
795.978,38.261,41.7284,,795.978,133.657,136.672,,795.978,28.6263,0.305318,30.5318,31.4107
798.094,35.855,39.021,,798.094,128.597,134.167,,798.094,27.8817,0.290839,29.0839,30.9208
800.211,35.956,37.7357,,800.211,125.54,130.027,,800.211,28.6411,0.290215,29.0215,30.5579
802.329,35.312,37.3992,,802.329,125.322,126.527,,802.329,28.177,0.295582,29.5582,30.2456
804.448,39.234,36.5069,,804.448,126.564,125.502,,804.448,30.9993,0.290887,29.0887,29.6981
806.567,44.241,38.7121,,806.567,127.1,126.252,,806.567,34.808,0.306626,30.6626,29.4693
808.688,40.609,40.8877,,808.688,125.336,125.674,,808.688,32.4001,0.325347,32.5347,29.8793
810.81,35.967,40.1997,,810.81,128.377,125.906,,810.81,28.0167,0.319283,31.9283,30.5308
812.933,39.625,38.8253,,812.933,128.684,127.414,,812.933,30.7925,0.304718,30.4718,30.8086
815.057,43.078,40.1119,,815.057,131.63,128.308,,815.057,32.7266,0.312623,31.2623,31.1859
817.181,45.473,41.9191,,817.181,134.057,130.993,,817.181,33.9206,0.320011,32.0011,31.5706
819.307,45.949,43.4605,,819.307,134.203,132.623,,819.307,34.2384,0.327701,32.7701,31.7477
821.434,54.074,46.7027,,821.434,138.133,134.892,,821.434,39.1463,0.346224,34.6224,31.9847
823.562,59.653,52.7929,,823.562,145.596,138.069,,823.562,40.9716,0.382365,38.2365,33.1593
825.69,59.109,56.9217,,825.69,157.121,145.507,,825.69,37.6201,0.391196,39.1196,34.7133
827.82,70.581,60.3905,,827.82,168.83,154.695,,827.82,41.806,0.390383,39.0383,36.0894
829.951,80.766,68.2711,,829.951,187.22,166.443,,829.951,43.1396,0.410177,41.0177,37.5848
832.082,87.297,76.4409,,832.082,198.489,179.92,,832.082,43.9808,0.424862,42.4862,39.2452
834.215,89.388,83.0799,,834.215,201.865,189.843,,834.215,44.2811,0.437624,43.7624,40.6153
836.349,88.456,85.9973,,836.349,207.147,196.953,,836.349,42.702,0.436639,43.6639,41.5578
838.483,105.088,90.787,,838.483,222.062,205.189,,838.483,47.3237,0.442455,44.2455,42.5386
840.619,130.628,103.99,,840.619,263.204,223.758,,840.619,49.6299,0.464745,46.4745,43.6971
842.755,163.602,125.678,,842.755,318.202,257.623,,842.755,51.4145,0.487836,48.7836,44.9166
844.893,198.891,154.754,,844.893,387.235,307.147,,844.893,51.3618,0.503845,50.3845,46.2289
847.032,234.408,186.537,,847.032,466.216,368.742,,847.032,50.2788,0.505876,50.5876,47.5129
849.171,283.991,224.046,,849.171,539.76,438.841,,849.171,52.6143,0.510539,51.0539,48.8576
851.312,319.774,266.165,,851.312,610.079,508.559,,851.312,52.4152,0.523371,52.3371,50.1408
853.453,354.866,303.349,,853.453,689.743,581.82,,853.453,51.449,0.521379,52.1379,51.0417
855.596,391.255,340.428,,855.596,759.16,656.437,,855.596,51.5379,0.5186,51.86,51.4767
857.739,420.49,375.726,,857.739,812.332,725.108,,857.739,51.7633,0.518166,51.8166,51.7018
859.884,443.16,406.189,,859.884,862.41,785.218,,859.884,51.3862,0.517295,51.7295,51.9052
862.029,455.399,428.85,,862.029,898.871,836.763,,862.029,50.6634,0.512511,51.2511,51.8523
864.175,465.118,444.541,,864.175,922.193,874.941,,864.175,50.4361,0.508081,50.8081,51.5869
866.323,474.082,457.473,,866.323,948.126,906.049,,866.323,50.002,0.50491,50.491,51.3198
868.471,485.556,469.158,,868.471,980.672,936.191,,868.471,49.5126,0.501135,50.1135,51.0181
870.621,499.467,481.125,,870.621,1024.768,969.541,,870.621,48.7395,0.49624,49.624,50.6392
872.771,521.05,495.039,,872.771,1083.951,1012.27,,872.771,48.0695,0.489039,48.9039,50.1822
874.922,546.301,515.285,,874.922,1160.046,1067.67,,874.922,47.093,0.482624,48.2624,49.6909
877.075,575.615,538.638,,877.075,1245.479,1136.88,,877.075,46.2164,0.473787,47.3787,49.1178
879.228,615.37,568.206,,879.228,1335.583,1215.24,,879.228,46.075,0.467568,46.7568,48.4701
881.382,646.485,600.329,,881.382,1432.739,1301.79,,881.382,45.1223,0.461156,46.1156,47.7895
883.537,679.403,632.775,,883.537,1518.439,1391.7,,883.537,44.7435,0.454677,45.4677,47.0905
885.694,701.766,663.318,,885.694,1584.213,1475.52,,885.694,44.2975,0.44955,44.955,46.4183
887.851,717.053,687.46,,887.851,1636.196,1547.2,,887.851,43.8244,0.444326,44.4326,45.7921
890.009,718.378,703.952,,890.009,1657.704,1600.32,,890.009,43.3357,0.439883,43.9883,45.2295
892.168,710.456,709.769,,892.168,1657.649,1631.54,,892.168,42.8593,0.435031,43.5031,44.6878
894.328,687.056,705.036,,894.328,1620.526,1638.07,,894.328,42.3971,0.430408,43.0408,44.1872
896.489,639.958,683.759,,896.489,1547.895,1611.23,,896.489,41.3438,0.42437,42.437,43.6944
898.651,595.911,649.836,,898.651,1475.081,1559.2,,898.651,40.3985,0.416776,41.6776,43.1586
900.815,548.884,609.571,,900.815,1377.637,1491.2,,900.815,39.8424,0.408778,40.8778,42.5662
902.979,500.481,565.007,,902.979,1265.567,1401.21,,902.979,39.546,0.403229,40.3229,41.9397
905.144,449.131,518.16,,905.144,1169.907,1305.49,,905.144,38.3903,0.396909,39.6909,41.2961
907.31,403.652,469.459,,907.31,1070.254,1208.49,,907.31,37.7155,0.388468,38.8468,40.596
909.477,362.311,424.045,,909.477,984.826,1114.05,,909.477,36.7893,0.380633,38.0633,39.8761
911.644,323.993,382.604,,911.644,905.197,1026.83,,911.644,35.7925,0.372609,37.2609,39.1513
913.813,292.779,344.257,,913.813,826.463,943.294,,913.813,35.4255,0.364952,36.4952,38.4092
915.983,264.05,309.698,,915.983,763.633,866.24,,915.983,34.5781,0.35752,35.752,37.6286
918.154,238.594,278.612,,918.154,707.802,798.941,,918.154,33.7091,0.348727,34.8727,36.8292
920.326,215.684,252.46,,920.326,658.335,738.542,,920.326,32.762,0.341836,34.1836,36.0425
922.499,193.5,227.791,,922.499,619.14,687.557,,922.499,31.253,0.331305,33.1305,35.2366
924.673,175.954,206.065,,924.673,572.491,640.618,,924.673,30.7348,0.321667,32.1667,34.3815
926.847,161.77,186.994,,926.847,533.023,594.896,,926.847,30.3495,0.31433,31.433,33.5235
929.023,139.769,169.347,,929.023,495.646,552.506,,929.023,28.1994,0.306508,30.6508,32.6762
931.2,120.131,148.465,,931.2,450.36,511.466,,931.2,26.6744,0.290274,29.0274,31.7189
933.377,106.766,129.285,,933.377,421.073,471.837,,933.377,25.3557,0.274004,27.4004,30.6023
935.556,98.31,114.457,,935.556,393.514,438.85,,935.556,24.9826,0.260812,26.0812,29.4293
937.736,85.217,103.08,,937.736,366.863,407.672,,937.736,23.2286,0.252851,25.2851,28.2363
939.916,77.397,91.4366,,939.916,336.849,378.683,,939.916,22.9768,0.24146,24.146,26.975
942.098,74.305,83.0121,,942.098,315.743,351.501,,942.098,23.5334,0.236165,23.6165,25.7923
944.28,68.667,77.1159,,944.28,297.273,329.091,,944.28,23.099,0.23433,23.433,24.8747
946.464,60.301,70.1734,,946.464,286.44,309.688,,946.464,21.0519,0.226594,22.6594,24.1518
948.648,50.391,61.4309,,948.648,274.516,295.151,,948.648,18.3563,0.208134,20.8134,23.3326
950.834,48.025,55.5904,,950.834,256.955,280.031,,950.834,18.69,0.198516,19.8516,22.4416
953.02,44.933,50.7048,,953.02,245.484,264.651,,953.02,18.3038,0.191591,19.1591,21.5955
955.207,47.294,48.3696,,955.207,237.922,252.672,,955.207,19.8779,0.191432,19.1432,20.7547
957.396,40.384,46.9077,,957.396,231.088,242.928,,957.396,17.4756,0.193093,19.3093,20.022
959.585,35.018,42.1522,,959.585,230.708,237.317,,959.585,15.1785,0.17762,17.762,19.3226
961.775,38.107,38.8616,,961.775,226.509,233.313,,961.775,16.8236,0.166564,16.6564,18.6819
963.966,35.014,37.8261,,963.966,221.946,228.965,,963.966,15.7759,0.165205,16.5205,18.1202
966.159,33.83,36.8651,,966.159,215.292,223.899,,966.159,15.7135,0.164651,16.4651,17.6281
968.352,30.738,36.0339,,968.352,215.365,219.144,,968.352,14.2725,0.16443,16.443,17.0796
970.546,23.826,32.2486,,970.546,215.711,216.856,,970.546,11.0453,0.148709,14.8709,16.437
972.741,27.37,29.0542,,972.741,212.511,215.025,,972.741,12.8793,0.13512,13.512,15.7744
974.937,26.368,29.0336,,974.937,210.31,212.698,,974.937,12.5377,0.136502,13.6502,15.1824
977.134,25.093,27.3935,,977.134,212.746,211.681,,977.134,11.7948,0.129409,12.9409,14.5515
979.332,28.818,27.5396,,979.332,213.999,212.673,,979.332,13.4664,0.129493,12.9493,13.8672
981.531,30.361,27.6165,,981.531,226.343,215.416,,981.531,13.4137,0.128201,12.8201,13.3247
983.731,28.177,27.8313,,983.731,234.142,224.264,,983.731,12.0342,0.124101,12.4101,13.0436
985.932,29.993,27.8867,,985.932,233.939,229.218,,985.932,12.8209,0.12166,12.166,12.8005
988.134,27.718,27.8929,,988.134,243.737,234.062,,988.134,11.3721,0.119169,11.9169,12.5471
990.336,22.08,26.101,,990.336,255.716,241.973,,990.336,8.63458,0.107867,10.7867,12.2331
992.54,20.441,23.3198,,992.54,261.968,250.41,,992.54,7.80286,0.0931264,9.31264,11.6115
994.745,27.529,24.3693,,994.745,267.673,257.952,,994.745,10.2846,0.0944724,9.44724,10.9611
996.951,24.527,26.1286,,996.951,275.56,265.407,,996.951,8.90078,0.0984474,9.84474,10.4904
999.157,21.888,24.2887,,999.157,287.447,272.94,,999.157,7.61462,0.0889894,8.89894,9.94566
1001.365,23.704,23.8307,,1001.365,296.424,282.111,,1001.365,7.99665,0.0844727,8.44727,9.3723
1003.573,26.61,24.0429,,1003.573,306.674,291.529,,1003.573,8.67697,0.0824715,8.24715,9.02349
1005.783,27.698,25.6608,,1005.783,321.741,302.439,,1005.783,8.60879,0.0848462,8.48462,8.88614
1007.993,25.15,26.6661,,1007.993,339.626,317.384,,1007.993,7.4052,0.0840183,8.40183,8.65558
1010.205,18.693,25.3909,,1010.205,357.42,333.92,,1010.205,5.22998,0.0760387,7.60387,8.34522
1012.417,18.418,21.7567,,1012.417,379.486,351.275,,1012.417,4.85341,0.0619363,6.19363,7.95725
1014.631,19.233,20.6173,,1014.631,405.551,372.643,,1014.631,4.74244,0.0553272,5.53272,7.46494
1016.845,12.594,19.3271,,1016.845,432.98,396.621,,1016.845,2.90868,0.0487293,4.87293,6.84816
1019.06,16.136,16.9604,,1019.06,471.045,424.948,,1019.06,3.42558,0.0399117,3.99117,6.02451
1021.277,25.224,19.8557,,1021.277,501.291,456.584,,1021.277,5.03181,0.0434875,4.34875,5.2751
1023.494,21.039,21.9864,,1023.494,523.264,484.683,,1023.494,4.02072,0.0453625,4.53625,4.8161
1025.712,16.036,20.4528,,1025.712,550.418,510.572,,1025.712,2.91342,0.0400586,4.00586,4.49615
1027.931,21.488,19.1694,,1027.931,568.39,536.22,,1027.931,3.7805,0.0357491,3.57491,4.17595
1030.151,19.939,20.5979,,1030.151,579.543,554.781,,1030.151,3.44047,0.037128,3.7128,4.03923
1032.372,13.663,18.4072,,1032.372,592.787,571.044,,1032.372,2.30488,0.0322343,3.22343,3.92322
1034.594,18.024,17.1854,,1034.594,595.121,583.612,,1034.594,3.02863,0.0294467,2.94467,3.64003
1036.817,18.384,18.646,,1036.817,599.091,590.118,,1036.817,3.06865,0.0315971,3.15971,3.39591
1039.041,18.199,18.6882,,1039.041,600.696,595.849,,1039.041,3.02965,0.031364,3.1364,3.2749
1041.266,23.286,19.2674,,1041.266,615.211,602.775,,1041.266,3.78504,0.0319644,3.19644,3.18304
1043.492,23.646,22.1446,,1043.492,618.997,611.694,,1043.492,3.82005,0.0362021,3.62021,3.17422
1045.718,19.643,23.2598,,1045.718,613.056,613.932,,1045.718,3.20411,0.0378867,3.78867,3.30967
1047.946,14.73,20.894,,1047.946,622.659,616.056,,1047.946,2.36566,0.0339158,3.39158,3.41124
1050.175,16.362,17.671,,1050.175,619.807,619.39,,1050.175,2.63985,0.0285297,2.85297,3.3811
1052.405,12.268,16.4466,,1052.405,617.318,618.355,,1052.405,1.98731,0.0265974,2.65974,3.30219
1054.635,15.718,14.3378,,1054.635,616.465,617.427,,1054.635,2.5497,0.0232219,2.32219,3.11292
1056.867,17.533,15.239,,1056.867,614.339,616.338,,1056.867,2.85396,0.0247251,2.47251,2.86458
1059.099,21.347,17.3024,,1059.099,611.576,614.856,,1059.099,3.49049,0.0281406,2.81406,2.68545
1061.333,18.525,19.1227,,1061.333,602.448,611.407,,1061.333,3.07495,0.0312766,3.12766,2.67757
1063.567,18.429,18.2044,,1063.567,594.774,604.965,,1063.567,3.09849,0.0300916,3.00916,2.72923
1065.802,16.425,18.3334,,1065.802,591.191,598.552,,1065.802,2.77829,0.0306296,3.06296,2.83794
1068.039,9.603,15.2574,,1068.039,584.425,593.979,,1068.039,1.64315,0.0256868,2.56868,2.91035
1070.276,15.507,13.7298,,1070.276,578.385,587.974,,1070.276,2.68109,0.0233511,2.33511,2.85524
1072.514,20.776,17.1429,,1072.514,568.981,580.469,,1072.514,3.65144,0.0295329,2.95329,2.80665
1074.753,25.135,21.0933,,1074.753,569.85,575.284,,1074.753,4.41081,0.036666,3.6666,2.87255
1076.993,16.494,21.677,,1076.993,557.626,569.992,,1076.993,2.9579,0.0380304,3.80304,3.01717
1079.234,11.307,17.0728,,1079.234,555.402,562.556,,1079.234,2.03582,0.0303487,3.03487,3.08568
1081.476,17.666,15.7184,,1081.476,553.268,558.451,,1081.476,3.19303,0.0281465,2.81465,3.16781
1083.719,17.752,16.5232,,1083.719,545.496,554.823,,1083.719,3.25429,0.0297809,2.97809,3.24105
1085.963,14.383,16.1695,,1085.963,533.633,546.855,,1085.963,2.6953,0.0295681,2.95681,3.19409
1088.208,13.287,15.5536,,1088.208,527.133,538.509,,1088.208,2.52062,0.0288828,2.88828,3.02165
1090.454,11.555,14.5455,,1090.454,525.905,532.379,,1090.454,2.19716,0.0273217,2.73217,2.88021
1092.772,16.095,13.8337,,1092.772,518.494,526.253,,1092.772,3.10418,0.0262872,2.62872,2.83467
1094.985,14.272,14.8195,,1094.985,516.445,519.848,,1094.985,2.76351,0.0285073,2.85073,2.81883
1097.197,18.448,15.4254,,1097.197,516.578,518.054,,1097.197,3.57119,0.0297756,2.97756,2.80501
1099.409,18.261,17.0245,,1099.409,504.074,513.399,,1099.409,3.62268,0.0331603,3.31603,2.86434
1101.622,19.619,17.5881,,1101.622,501.659,507.463,,1101.622,3.91082,0.0346589,3.46589,2.98338
1103.834,15.522,17.2561,,1103.834,488.698,501.131,,1103.834,3.17619,0.0344344,3.44344,3.14303
1106.047,19.698,17.6614,,1106.047,483.282,493.714,,1106.047,4.07588,0.0357725,3.57725,3.28361
1108.259,21.692,19.8122,,1108.259,474.683,486.317,,1108.259,4.56979,0.0407392,4.07392,3.48226
1110.472,20.868,21.313,,1110.472,471.264,479.163,,1110.472,4.42809,0.0444795,4.44795,3.70852
1112.684,16.043,19.1416,,1112.684,471.027,474.964,,1112.684,3.40596,0.0403012,4.03012,3.86129
1114.897,14.946,15.9065,,1114.897,459.152,469.441,,1114.897,3.25513,0.0338839,3.38839,3.87252
1117.109,17.667,14.9347,,1117.109,452.004,461.556,,1117.109,3.90859,0.0323573,3.23573,3.84083
1119.321,15.933,15.4788,,1119.321,444.854,455.114,,1119.321,3.58162,0.0340108,3.40108,3.75779
1121.534,18.29,17.081,,1121.534,436.522,447.135,,1121.534,4.18994,0.0382009,3.82009,3.65249
1123.746,19.284,18.1082,,1123.746,433.189,440.343,,1123.746,4.45164,0.0411229,4.11229,3.59551
1125.959,19.277,19.7763,,1125.959,422.491,435.03,,1125.959,4.5627,0.0454596,4.54596,3.7248
1128.171,17.452,18.3503,,1128.171,409.246,425.119,,1128.171,4.26443,0.0431651,4.31651,3.92878
1130.384,17.354,18.3815,,1130.384,401.001,414.743,,1130.384,4.32767,0.0443201,4.43201,4.13581
1132.596,12.165,15.422,,1132.596,390.936,405.394,,1132.596,3.11176,0.038042,3.8042,4.23251
1134.809,14.066,14.2115,,1134.809,382.688,396.804,,1134.809,3.67558,0.035815,3.5815,4.16445
1137.021,18.423,15.1373,,1137.021,371.531,387.432,,1137.021,4.95867,0.0390709,3.90709,4.06887
1139.233,16.233,16.6264,,1139.233,365.917,378.168,,1139.233,4.43625,0.0439658,4.39658,4.03711
1141.446,15.589,16.2571,,1141.446,355.303,369.536,,1141.446,4.38752,0.0439931,4.39931,4.04251
1143.658,17.763,16.9184,,1143.658,344.505,357.825,,1143.658,5.15609,0.0472813,4.72813,4.10564
1145.871,13.846,16.4778,,1145.871,340.343,349.602,,1145.871,4.06825,0.047133,4.7133,4.32041
1148.083,13.111,14.2514,,1148.083,326.18,342.185,,1148.083,4.01956,0.0416482,4.16482,4.44184
1150.296,20.012,15.1965,,1150.296,320.471,332.139,,1150.296,6.24456,0.0457534,4.57534,4.483
1152.508,19.913,17.8925,,1152.508,310.396,323.888,,1152.508,6.41535,0.0552429,5.52429,4.64221
1154.721,19.723,18.832,,1154.721,296.048,311.866,,1154.721,6.6621,0.0603848,6.03848,4.90542
1156.933,15.169,17.9766,,1156.933,294.972,303.517,,1156.933,5.14252,0.0592278,5.92278,5.14217
1159.145,13.615,15.1036,,1159.145,290.894,299.059,,1159.145,4.6804,0.0505037,5.05037,5.30133
1161.358,17.333,15.5917,,1161.358,277.725,291.297,,1161.358,6.24107,0.053525,5.3525,5.48573
1163.57,16.052,17.1036,,1163.57,272.555,282.078,,1163.57,5.88945,0.0606343,6.06343,5.65675
1165.783,12.406,15.5494,,1165.783,262.111,273.739,,1165.783,4.73311,0.0568036,5.68036,5.68617
1167.995,16.124,15.0865,,1167.995,255.484,264.346,,1167.995,6.31116,0.0570708,5.70708,5.60075
1170.208,13.388,15.8182,,1170.208,251.947,258.469,,1170.208,5.31382,0.0611994,6.11994,5.69567
1172.42,9.924,14.2437,,1172.42,239.228,251.874,,1172.42,4.14834,0.0565509,5.65509,5.82182
1174.633,12.006,12.5913,,1174.633,233.962,243.314,,1174.633,5.1316,0.0517493,5.17493,5.7329
1176.845,17.178,14.1481,,1176.845,233.696,237.788,,1176.845,7.35058,0.059499,5.9499,5.64963
1179.057,15.805,15.8856,,1179.057,227.519,234.273,,1179.057,6.94667,0.0678082,6.78082,5.82601
1181.27,11.614,15.03,,1181.27,221.706,229.789,,1181.27,5.23847,0.0654078,6.54078,5.96036
1183.482,15.331,13.7721,,1183.482,213.346,223.527,,1183.482,7.18598,0.0616126,6.16126,6.00478
1185.695,20.776,16.9481,,1185.695,208.713,217.508,,1185.695,9.95434,0.0779195,7.79195,6.35283
1187.907,17.221,17.6402,,1187.907,205.989,212.148,,1187.907,8.36016,0.0831508,8.31508,6.90705
1190.12,19.666,17.7493,,1190.12,204.264,209.467,,1190.12,9.62774,0.0847354,8.47354,7.30602
1192.332,15.474,17.7579,,1192.332,196.265,204.049,,1192.332,7.88424,0.0870274,8.70274,7.68666
1194.545,13.1,15.9351,,1194.545,189.358,197.741,,1194.545,6.91811,0.0805859,8.05859,8.06773
1196.757,17.272,15.6403,,1196.757,193.177,193.961,,1196.757,8.94102,0.0806364,8.06364,8.30168
1198.969,22.808,17.4863,,1198.969,190.906,193.006,,1198.969,11.9472,0.0905997,9.05997,8.40516
1201.182,23.616,19.7496,,1201.182,186.088,190.567,,1201.182,12.6908,0.103636,10.3636,8.72449
1203.394,29.697,23.3643,,1203.394,191.18,189.25,,1203.394,15.5335,0.123457,12.3457,9.2985
1205.607,30.505,27.4092,,1205.607,190.818,190.793,,1205.607,15.9864,0.143659,14.3659,10.3243
1207.819,33.404,30.0889,,1207.819,187.182,190.204,,1207.819,17.8457,0.158193,15.8193,11.7202
1210.032,35.576,32.8919,,1210.032,177.456,185.966,,1210.032,20.0478,0.17687,17.687,13.3771
1212.244,34.839,33.9763,,1212.244,174.367,180.512,,1212.244,19.9803,0.188222,18.8222,15.0457
1214.456,32.738,34.3053,,1214.456,171.188,177.486,,1214.456,19.124,0.193285,19.3285,16.5641
1216.669,29.728,32.9894,,1216.669,160.555,172.299,,1216.669,18.5158,0.191466,19.1466,17.6806
1218.881,27.173,30.5944,,1218.881,145.922,163.047,,1218.881,18.6216,0.187641,18.7641,18.4577
1221.094,22.618,27.2063,,1221.094,131.745,151.738,,1221.094,17.168,0.179298,17.9298,18.7756
1223.306,19.427,23.7844,,1223.306,122.66,140.321,,1223.306,15.8381,0.1695,16.95,18.5951
1225.519,19.599,21.7567,,1225.519,114.121,128.737,,1225.519,17.1739,0.169001,16.9001,18.1614
1227.731,15.499,19.4674,,1227.731,109.584,119.879,,1227.731,14.1435,0.162392,16.2392,17.6442
1229.944,10.399,15.9906,,1229.944,106.866,114.308,,1229.944,9.73088,0.13989,13.989,16.8282
1232.156,9.481,12.9943,,1232.156,99.241,108.599,,1232.156,9.55351,0.119655,11.9655,15.685
1234.368,9.654,12.0323,,1234.368,90.436,101.027,,1234.368,10.675,0.119101,11.9101,14.6196
1236.581,13.01,11.1276,,1236.581,87.178,95.8468,,1236.581,14.9235,0.116098,11.6098,13.656
1238.793,14.365,11.8932,,1238.793,79.468,89.054,,1238.793,18.0765,0.13355,13.355,12.9184
1241.006,10.266,12.2408,,1241.006,75.305,83.0192,,1241.006,13.6326,0.147446,14.7446,12.7776
1242.586,3.248,10.6751,,1242.586,69.901,79.3938,,1242.586,4.64657,0.134458,13.4458,