File: public_html/data/backup/schreiberglass-Kupferrot_7878.csv
wavelength_nm,intensity,intensity_smoothed,,wavelength_nm2,intensity_i0,intensity_i0_smoothed,,wavelength_nm3,,transmission,transmission_perc,transmission_perc_smoothed
173.232,8.053,#N/A,,173.232,19.372,#N/A,,173.232,41.5703,#N/A,#N/A,#N/A
175.084,15.977,10.2863,,175.084,33.69,22.9547,,175.084,47.4236,0.448113,44.8113,#N/A
176.935,8.976,11.7255,,176.935,35.507,28.7339,,176.935,25.2795,0.408071,40.8071,#N/A
178.787,9.521,9.60482,,178.787,32.052,29.5431,,178.787,29.7049,0.325113,32.5113,#N/A
180.639,15.066,10.9188,,180.639,39.87,32.1451,,180.639,37.7878,0.339673,33.9673,#N/A
182.491,16.339,12.7002,,182.491,38.233,36.3785,,182.491,42.7353,0.349113,34.9113,#N/A
184.342,16.156,14.2628,,184.342,31.233,35.1993,,184.342,51.7273,0.405202,40.5202,37.1482
186.194,17.247,14.9127,,186.194,35.141,34.1309,,186.194,49.0794,0.436928,43.6928,37.1236
188.046,9.428,14.6119,,188.046,33.414,34.1736,,188.046,28.2157,0.427578,42.7578,38.5519
189.897,13.61,12.8567,,189.897,31.959,33.1214,,189.897,42.5858,0.388169,38.8169,39.86
191.749,9.973,13.7331,,191.749,30.958,32.8964,,191.749,32.2146,0.417465,41.7465,41.055
193.601,11.336,11.8461,,193.601,36.958,33.1093,,193.601,30.6727,0.357787,35.7787,41.0615
195.453,13.972,12.1836,,195.453,35.139,34.5047,,195.453,39.7621,0.3531,35.31,39.5202
197.304,12.972,13.83,,197.304,32.684,33.3048,,197.304,39.6891,0.415257,41.5257,38.5677
199.156,12.698,13.3954,,199.156,31.229,32.1767,,199.156,40.6609,0.416309,41.6309,38.7938
201.008,21.243,15.2507,,201.008,33.41,32.5906,,201.008,63.5828,0.467948,46.7948,39.7038
202.86,14.879,17.0032,,202.86,33.046,32.9429,,202.86,45.0251,0.516142,51.6142,42.0817
204.711,10.061,13.9945,,204.711,35.046,34.2754,,204.711,28.708,0.408295,40.8295,43.9705
206.563,13.06,13.0353,,206.563,39.227,35.2897,,206.563,33.2934,0.369381,36.9381,43.971
208.415,13.423,13.7017,,208.415,44.135,39.2673,,208.415,30.4135,0.348934,34.8934,42.779
210.267,11.787,14.0606,,210.267,38.771,40.755,,210.267,30.4016,0.345004,34.5004,41.1015
212.118,14.513,13.5165,,212.118,35.953,39.9513,,212.118,40.3666,0.338325,33.8325,37.852
213.97,9.967,13.5741,,213.97,35.043,37.0852,,213.97,28.4422,0.366025,36.6025,35.6994
215.822,13.876,11.9469,,215.822,34.588,36.235,,215.822,40.118,0.329705,32.9705,34.7331
217.673,16.421,14.2814,,217.673,38.315,36.4701,,217.673,42.8579,0.391593,39.1593,35.0145
219.525,16.057,15.1739,,219.525,36.314,37.2076,,219.525,44.2171,0.407817,40.7817,36.1832
221.377,11.42,14.1315,,221.377,33.314,35.1484,,221.377,34.2799,0.402052,40.2052,37.6079
223.229,9.147,11.7519,,223.229,30.586,34.7675,,223.229,29.9058,0.338013,33.8013,37.6121
225.08,10.237,10.2888,,225.08,30.312,31.8506,,225.08,33.7721,0.323034,32.3034,37.2266
226.932,11.782,11.0273,,226.932,40.857,34.2874,,226.932,28.8372,0.321614,32.1614,36.6911
228.784,8.6,10.1265,,228.784,39.039,37.7254,,228.784,22.0293,0.268427,26.8427,34.6078
230.636,9.6,9.80521,,230.636,38.674,39.4259,,230.636,24.8229,0.2487,24.87,31.6104
232.487,8.144,9.31269,,232.487,34.674,37.3684,,232.487,23.4873,0.249213,24.9213,29.2643
234.339,13.053,10.3619,,234.339,39.219,37.2061,,234.339,33.2823,0.278501,27.8501,27.9965
236.191,19.234,13.1835,,236.191,38.855,38.0541,,236.191,49.502,0.34644,34.644,27.8059
238.043,20.598,16.2953,,238.043,42.854,39.816,,238.043,48.0655,0.409265,40.9265,29.4257
239.894,14.87,16.2923,,239.894,50.49,43.6746,,239.894,29.4514,0.373039,37.3039,31.9221
241.746,14.778,16.0679,,241.746,58.489,49.6724,,241.746,25.2663,0.323479,32.3479,33.5136
243.598,10.232,13.2941,,243.598,58.307,54.5294,,243.598,17.5485,0.243797,24.3797,33.8174
245.449,17.777,12.7599,,245.449,61.124,56.9949,,245.449,29.0835,0.223878,22.3878,32.3719
247.301,15.322,14.6872,,247.301,64.488,60.3314,,247.301,23.7595,0.243442,24.3442,29.8459
249.153,7.594,12.7756,,249.153,70.123,63.8932,,249.153,10.8295,0.199952,19.9952,26.328
251.005,7.685,9.88164,,251.005,74.577,68.4614,,251.005,10.3048,0.144339,14.4339,22.6702
252.856,11.412,10.8299,,252.856,75.668,72.1496,,252.856,15.0817,0.150103,15.0103,19.9115
254.681,8.956,10.63,,254.681,82.758,75.8182,,254.681,10.8219,0.140204,14.0204,18.3445
256.513,12.138,10.0621,,256.513,84.939,79.6534,,256.513,14.2903,0.126324,12.6324,16.2859
258.347,15.319,11.6012,,258.347,79.12,81.0065,,258.347,19.3617,0.143213,14.3213,14.5284
260.181,11.773,12.8739,,260.181,79.574,78.8582,,260.181,14.795,0.163254,16.3254,14.2776
262.017,11.5,11.0533,,262.017,86.028,80.7691,,262.017,13.3677,0.13685,13.685,14.3571
263.853,13.681,11.2303,,263.853,83.755,82.9695,,263.853,16.3345,0.135355,13.5355,14.1151
265.691,13.862,13.1587,,265.691,81.118,83.0698,,265.691,17.0887,0.158405,15.8405,14.5399
267.53,11.316,12.1742,,267.53,83.208,82.7602,,267.53,13.5997,0.147103,14.7103,14.9111
269.369,15.407,12.4737,,269.369,83.662,83.0511,,269.369,18.4158,0.150194,15.0194,14.7249
271.21,14.042,13.5232,,271.21,87.48,84.5473,,271.21,16.0517,0.159949,15.9949,14.7875
273.052,12.133,12.8091,,273.052,81.934,85.4352,,273.052,14.8083,0.149927,14.9927,15.1592
274.895,16.86,13.622,,274.895,78.478,82.5038,,274.895,21.4837,0.165107,16.5107,15.3836
276.739,17.041,16.5826,,276.739,82.66,80.8835,,276.739,20.6158,0.205018,20.5018,16.0735
278.584,16.404,16.5181,,278.584,85.932,82.765,,278.584,19.0895,0.199578,19.9578,17.1349
280.431,19.676,17.803,,280.431,83.295,83.2018,,280.431,23.6221,0.213974,21.3974,18.0876
282.278,15.857,17.5546,,282.278,85.294,83.2551,,282.278,18.591,0.210853,21.0853,19.161
284.126,17.857,16.4846,,284.126,88.657,85.4949,,284.126,20.1417,0.192814,19.2814,19.9745
285.976,19.402,17.0324,,285.976,83.656,85.7767,,285.976,23.1926,0.198566,19.8566,20.242
287.826,14.855,17.837,,287.826,82.383,83.9464,,287.826,18.0316,0.212481,21.2481,20.3895
289.678,12.855,15.578,,289.678,79.2,83.0632,,289.678,16.2311,0.187543,18.7543,20.2412
291.531,16.218,15.7371,,291.531,81.2,82.3258,,291.531,19.9729,0.191156,19.1156,19.7232
293.385,11.49,14.6273,,293.385,83.108,82.4176,,293.385,13.8254,0.177477,17.7477,19.3578
295.239,14.126,13.6633,,295.239,88.835,84.634,,295.239,15.9014,0.16144,16.144,18.7649
297.095,14.216,13.7907,,297.095,81.652,85.6638,,297.095,17.4105,0.160986,16.0986,17.8864
298.952,16.397,14.0889,,298.952,81.833,83.2325,,298.952,20.0371,0.169272,16.9272,17.2554
300.81,15.488,15.1866,,300.81,81.56,81.5078,,300.81,18.9897,0.18632,18.632,17.1782
302.669,20.487,16.2209,,302.669,83.559,82.7159,,302.669,24.518,0.196104,19.6104,17.3016
304.53,20.486,18.5168,,304.53,86.377,84.3667,,304.53,23.717,0.21948,21.948,18.2063
306.391,21.395,20.2834,,306.391,81.558,85.6932,,306.391,26.2329,0.236698,23.6698,19.5658
308.253,15.576,19.9597,,308.253,77.193,82.5594,,308.253,20.178,0.241762,24.1762,21.0541
310.117,18.121,17.6686,,310.117,80.284,80.8732,,310.117,22.5711,0.218472,21.8472,21.9689
311.981,13.029,16.6879,,311.981,82.556,80.9298,,311.981,15.782,0.206203,20.6203,22.4103
313.847,17.12,15.0525,,313.847,87.373,81.8857,,313.847,19.5942,0.183823,18.3823,22.0172
315.713,20.21,17.0025,,315.713,91.463,85.5911,,315.713,22.0964,0.198648,19.8648,21.3785
317.581,15.118,17.1861,,317.581,90.19,88.5784,,317.581,16.7624,0.194022,19.4022,20.542
319.45,14.663,16.7999,,319.45,89.644,89.3886,,319.45,16.3569,0.187942,18.7942,19.7323
321.319,16.571,17.3289,,321.319,82.188,88.1012,,321.319,20.1623,0.196693,19.6693,19.2603
323.19,15.389,17.2206,,323.19,84.46,86.0177,,323.19,18.2205,0.200198,20.0198,19.3692
325.062,15.934,16.7542,,325.062,83.46,85.5423,,325.062,19.0918,0.195858,19.5858,19.5323
326.935,8.206,14.1761,,326.935,85.55,84.6431,,326.935,9.59205,0.16748,16.748,19.1307
328.809,16.478,12.3265,,328.809,90.003,86.1662,,328.809,18.3083,0.143054,14.3054,18.2919
330.685,22.477,15.9375,,330.685,84.73,86.5262,,330.685,26.5278,0.184192,18.4192,17.9292
332.561,14.295,17.6237,,332.561,84.275,85.7221,,332.561,16.9623,0.20559,20.559,18.0249
334.438,9.93,13.4535,,334.438,84.547,85.1362,,334.438,11.7449,0.158023,15.8023,17.5562
336.316,16.293,13.0667,,336.316,86.728,85.1043,,336.316,18.7863,0.153538,15.3538,16.8518
338.196,12.383,13.3568,,338.196,87.454,86.1917,,338.196,14.1594,0.154966,15.4966,16.9813
340.076,10.201,11.575,,340.076,87.272,86.6237,,340.076,11.6887,0.133624,13.3624,16.6374
341.958,14.473,11.2317,,341.958,89.18,87.7807,,341.958,16.229,0.127951,12.7951,15.3045
343.84,13.745,12.8185,,343.84,90.543,88.5763,,343.84,15.1806,0.144717,14.4717,14.3851
345.724,18.199,13.3976,,345.724,91.815,89.3781,,345.724,19.8214,0.149898,14.9898,14.3093
347.609,15.106,16.0249,,347.609,89.459,89.3094,,347.609,16.8859,0.179431,17.9431,14.5357
349.495,9.839,14.6818,,349.495,93.627,89.9856,,349.495,10.5087,0.163157,16.3157,14.9982
351.382,12.257,13.0145,,351.382,88.843,90.5661,,351.382,13.7962,0.143702,14.3702,15.3124
353.269,13.477,12.909,,353.269,93.573,90.4043,,353.269,14.4027,0.142792,14.2792,15.4445
355.158,15.266,13.6907,,355.158,96.749,92.356,,355.158,15.779,0.148238,14.8238,15.4844
357.048,16.083,14.0069,,357.048,99.65,95.0671,,357.048,16.1395,0.147337,14.7337,15.1873
358.94,18.806,16.6839,,358.94,98.941,97.5787,,358.94,19.0073,0.170979,17.0979,14.9321
360.832,14.773,17.0654,,360.832,101.901,98.6542,,360.832,14.4974,0.172982,17.2982,15.3789
362.725,19.187,17.4155,,362.725,105.458,101.011,,362.725,18.194,0.172412,17.2412,15.9119
364.619,18.795,18.1297,,364.619,101.394,103.29,,364.619,18.5366,0.175521,17.5521,16.4471
366.515,16.136,17.0165,,366.515,105.344,103.188,,366.515,15.3174,0.164907,16.4907,16.8484
368.411,15.644,16.1075,,368.411,107.973,105.209,,368.411,14.4888,0.1531,15.31,16.8609
370.308,14.581,15.6484,,370.308,107.574,106.432,,370.308,13.5544,0.147027,14.7027,16.3797
372.207,16.378,15.1143,,372.207,109.207,108.154,,372.207,14.9972,0.139747,13.9747,15.8279
374.107,16.658,14.8892,,374.107,105.746,107.353,,374.107,15.7528,0.138694,13.8694,15.185
376.007,20.16,16.6747,,376.007,116.159,108.759,,376.007,17.3555,0.153317,15.3317,14.7466
377.909,15.269,17.798,,377.909,120.542,113.575,,377.909,12.667,0.156707,15.6707,14.7147
379.812,12.556,16.5291,,379.812,118.467,116.59,,379.812,10.5987,0.141771,14.1771,14.6129
381.716,16.423,14.8715,,381.716,114.164,116.666,,381.716,14.3854,0.127471,12.7471,14.376
383.62,21.687,17.1202,,383.62,117.663,117.335,,383.62,18.4315,0.145909,14.5909,14.3996
385.526,17.288,18.6567,,385.526,126.349,119.584,,385.526,13.6827,0.156012,15.6012,14.6017
387.433,15.131,18.3401,,387.433,123.393,123.038,,387.433,12.2624,0.149061,14.9061,14.4642
389.341,17.559,15.9927,,389.341,126.559,123.366,,389.341,13.8742,0.129636,12.9636,14.1616
391.25,19.497,17.5607,,391.25,135.632,127.709,,391.25,14.3749,0.137506,13.7506,14.1892
393.161,17.046,17.7205,,393.161,147.268,133.945,,393.161,11.5748,0.132297,13.2297,14.2205
395.072,16.215,17.519,,395.072,168.081,146.483,,395.072,9.64713,0.119598,11.9598,13.6557
396.984,16.855,16.7339,,396.984,196.506,164.926,,396.984,8.57735,0.101463,10.1463,12.8059
398.897,19.032,17.567,,398.897,244.17,193.507,,398.897,7.79457,0.0907819,9.07819,11.9664
400.812,15.402,16.8797,,400.812,307.693,235.647,,400.812,5.00564,0.0716313,7.16313,10.9481
402.727,17.85,16.4992,,402.727,400.782,295.019,,402.727,4.45379,0.055926,5.5926,9.47237
404.644,18.635,17.1357,,404.644,535.775,382.114,,404.644,3.47814,0.0448444,4.48444,7.98918
406.561,18.152,18.1485,,406.561,730.803,509.205,,406.561,2.48384,0.0356409,3.56409,6.58497
408.48,17.883,18.7986,,408.48,1021.145,694.926,,408.48,1.75127,0.0270513,2.70513,5.30047
410.4,19.683,19.399,,410.4,1452.911,968.406,,410.4,1.35473,0.0200318,2.00318,4.12379
412.32,14.894,19.1568,,412.32,2070.227,1369.03,,412.32,0.719438,0.013993,1.3993,3.19981
414.242,13.658,16.8429,,414.242,2939.2,1943.03,,414.242,0.464684,0.00866838,0.866838,2.41104
416.165,17.513,15.9093,,416.165,4112.633,2746.6,,416.165,0.425834,0.00579237,0.579237,1.76159
418.089,21.51,19.3395,,418.089,5705.194,3845.15,,418.089,0.377025,0.00502959,0.502959,1.2586
420.014,17.321,18.9746,,420.014,7809.094,5328.01,,420.014,0.221806,0.00356129,0.356129,0.886797
421.939,17.329,17.931,,421.939,10487.644,7275.23,,421.939,0.165233,0.00246467,0.246467,0.609309
423.866,21.084,17.7142,,423.866,13764.393,9756.34,,423.866,0.153178,0.00181566,0.181566,0.429395
425.795,19.891,18.5657,,425.795,17656.791,12809.7,,425.795,0.112654,0.00144935,0.144935,0.323149
427.724,18.794,18.7785,,427.724,22181.078,16466.7,,427.724,0.0847299,0.00114039,0.114039,0.244128
429.654,17.763,18.4712,,429.654,27351.265,20737,,429.654,0.064944,0.000890737,0.0890737,0.178962
431.585,19.228,17.5471,,431.585,33285.158,25669.4,,431.585,0.0577675,0.000683579,0.0683579,0.135258
433.517,19.879,18.2239,,433.517,39884.594,31296.3,,433.517,0.0498413,0.000582302,0.0582302,0.106017
435.451,14.793,17.4796,,435.451,47143.109,37597.2,,435.451,0.0313789,0.000464917,0.0464917,0.0840072
437.385,15.82,16.9377,,437.385,54434.033,44457.5,,437.385,0.0290627,0.000380986,0.0380986,0.0668657
439.32,14.84,16.0479,,439.32,60243.57,51246.6,,439.32,0.0246333,0.000313151,0.0313151,0.0535987
441.257,20.023,17.3028,,441.257,63057.251,56809.8,,441.257,0.0317537,0.000304574,0.0304574,0.0443797
443.194,19.383,18.192,,443.194,62937.998,60139.8,,443.194,0.030797,0.000302495,0.0302495,0.0380165
445.133,17.637,18.4861,,445.133,61193.827,61214.9,,445.133,0.0288215,0.000301988,0.0301988,0.0335715
447.072,14.556,15.4621,,447.072,57512.632,60395.7,,447.072,0.0253092,0.000256014,0.0256014,0.0306131
449.013,13.295,14.6428,,449.013,50613.182,57272.4,,449.013,0.0262679,0.00025567,0.025567,0.0288254
450.955,10.855,12.8031,,450.955,41975.067,51614.2,,450.955,0.0258606,0.000248055,0.0248055,0.0278543
452.897,16.799,12.6422,,452.897,34059.554,44507.7,,452.897,0.0493224,0.000284044,0.0284044,0.0271728
454.841,17.954,15.5543,,454.841,27745.913,37380.7,,454.841,0.0647086,0.000416105,0.0416105,0.028619
456.786,17.565,17.4541,,456.786,22921.571,31061.9,,456.786,0.0766309,0.000561914,0.0561914,0.0331137
458.732,11.406,15.9919,,458.732,19248.14,25831.9,,458.732,0.0592577,0.000619074,0.0619074,0.0398281
460.679,14.146,14.3747,,460.679,16354.743,21633,,460.679,0.0864948,0.000664481,0.0664481,0.0473013
462.627,12.733,14.2187,,462.627,13872.676,18231.7,,462.627,0.0917847,0.000779887,0.0779887,0.0566901
464.576,13.923,14.1601,,464.576,11728.808,15397.6,,464.576,0.118708,0.000919629,0.0919629,0.0667084
466.526,13.338,13.417,,466.526,9934.298,13011.9,,466.526,0.134262,0.00103113,0.103113,0.0764411
468.477,12.279,12.8005,,468.477,8502.236,11025.8,,468.477,0.144421,0.00116096,0.116096,0.0864562
470.429,19.091,13.9828,,470.429,7363.688,9405.6,,470.429,0.259259,0.00148665,0.148665,0.100479
472.382,15.375,15.9955,,472.382,6502.234,8109.32,,472.382,0.236457,0.00197248,0.197248,0.122051
474.336,15.205,15.9102,,474.336,5844.546,7096.97,,474.336,0.260157,0.00224183,0.224183,0.147267
476.292,11.516,15.1867,,476.292,5343.422,6310.11,,476.292,0.215517,0.00240672,0.240672,0.17375
478.248,12.321,13.3593,,478.248,4960.583,5704.02,,478.248,0.248378,0.00234209,0.234209,0.197168
480.205,11.936,13.2642,,480.205,4673.005,5237.81,,480.205,0.255425,0.00253239,0.253239,0.220252
482.164,11.708,12.2606,,482.164,4481.539,4889.84,,482.164,0.26125,0.00250736,0.250736,0.235044
484.123,16.475,13.4421,,484.123,4395.281,4648.59,,484.123,0.374834,0.00289165,0.289165,0.247402
486.083,12.92,13.3394,,486.083,4432.828,4520.15,,486.083,0.291462,0.00295109,0.295109,0.259625
488.045,17.345,13.6025,,488.045,4610.368,4514.47,,488.045,0.376217,0.00301309,0.301309,0.272141
490.007,21.137,16.3892,,490.007,4925.802,4639.4,,490.007,0.429108,0.0035326,0.35326,0.290478
491.971,15.251,17.7085,,491.971,5378.403,4897.99,,491.971,0.28356,0.00361546,0.361546,0.312461
493.936,19.066,17.1478,,493.936,5936.261,5285.32,,493.936,0.321179,0.00324441,0.324441,0.325654
495.901,17.565,18.6859,,495.901,6601.205,5789.11,,495.901,0.266088,0.00322777,0.322777,0.3306
497.868,16.309,17.778,,497.868,7369.365,6403.65,,497.868,0.221308,0.00277622,0.277622,0.329241
499.836,11.684,16.5866,,499.836,8224.39,7121.8,,499.836,0.142065,0.00232899,0.232899,0.314352
501.804,14.077,15.5874,,501.804,9125.372,7925.1,,501.804,0.154262,0.00196684,0.196684,0.2837
503.774,9.522,14.5597,,503.774,10055.42,8786.79,,503.774,0.0946952,0.00165699,0.165699,0.252445
505.745,8.302,10.6781,,505.745,11001.973,9692.89,,505.745,0.0754592,0.00110164,0.110164,0.214779
507.717,18.657,12.31,,507.717,11935.339,10610.4,,507.717,0.156317,0.00116018,0.116018,0.178217
509.69,15.957,15.3376,,509.69,12884.921,11544.4,,509.69,0.123842,0.00132858,0.132858,0.153624
511.664,13.723,15.0436,,511.664,13774.941,12472.2,,511.664,0.0996229,0.00120617,0.120617,0.136355
513.639,16.936,15.4954,,513.639,14632.225,13374,,513.639,0.115745,0.00115862,0.115862,0.123221
515.615,18.159,16.2634,,515.615,15392.368,14228.9,,515.615,0.117974,0.00114298,0.114298,0.118436
517.592,21.46,17.6821,,517.592,16059.305,15008.3,,517.592,0.13363,0.00117815,0.117815,0.120392
519.57,21.066,19.9071,,519.57,16675.782,15717.7,,519.57,0.126327,0.00126654,0.126654,0.120243
521.549,16.358,19.3447,,521.549,17207.023,16358.4,,521.549,0.0950658,0.00118255,0.118255,0.119096
523.529,10.419,16.4085,,523.529,17655.578,16920.3,,523.529,0.0590125,0.000969755,0.0969755,0.116549
525.51,14.95,13.9736,,525.51,18014.552,17401.4,,525.51,0.0829885,0.000803017,0.0803017,0.110692
527.493,19.602,16.2307,,527.493,18306.536,17801.1,,527.493,0.107077,0.000911784,0.0911784,0.105154
529.476,15.938,17.7756,,529.476,18493.465,18119.2,,529.476,0.0861818,0.000981036,0.0981036,0.100105
531.46,18.845,17.0387,,531.46,18579.761,18340.9,,531.46,0.101428,0.000929002,0.0929002,0.0942269
533.446,16.788,17.8244,,533.446,18621.056,18478.8,,533.446,0.090156,0.000964585,0.0964585,0.0914404
535.432,12.309,15.669,,535.432,18656.156,18564,,535.432,0.0659782,0.000844054,0.0844054,0.0913598
537.419,14.039,14.5922,,537.419,18589.524,18595.8,,537.419,0.075521,0.000784703,0.0784703,0.0905081
539.408,16.436,14.9794,,539.408,18555.23,18585.3,,539.408,0.0885788,0.000805983,0.0805983,0.0874798
541.397,12.95,15.3725,,541.397,18474.988,18555.5,,541.397,0.0700948,0.000828463,0.0828463,0.0851392
543.388,9.321,12.2592,,543.388,18355.046,18478.9,,543.388,0.0507817,0.000663416,0.0663416,0.0808981
545.379,15.019,11.4819,,545.379,18248.544,18389.5,,545.379,0.0823025,0.000624369,0.0624369,0.0753624
547.372,19.478,14.1494,,547.372,18138.685,18289,,547.372,0.107384,0.000773654,0.0773654,0.073957
549.365,16.425,16.5921,,549.365,18001.624,18180.9,,549.365,0.0912418,0.000912611,0.0912611,0.0758432
551.36,8.775,14.4489,,551.36,17827.735,18043.2,,551.36,0.0492211,0.000800797,0.0800797,0.0765572
553.356,14.651,12.7631,,553.356,17631.285,17879.9,,553.356,0.0830966,0.000713822,0.0713822,0.0758137
555.352,15.236,14.5688,,555.352,17438.845,17704,,555.352,0.0873682,0.000822914,0.0822914,0.0790268
557.35,11.097,13.2901,,557.35,17194.424,17508.3,,557.35,0.0645384,0.000759074,0.0759074,0.0810107
559.349,14.235,13.3121,,559.349,16964.953,17284.3,,559.349,0.0839083,0.000770186,0.0770186,0.0791541
561.348,19.637,15.561,,561.348,16724.541,17056.8,,561.348,0.117414,0.000912307,0.0912307,0.0783852
563.349,19.864,18.2684,,563.349,16486.156,16821.8,,563.349,0.120489,0.001086,0.1086,0.0839797
565.351,18.101,18.4178,,565.351,16210.355,16578.2,,565.351,0.111663,0.00111097,0.111097,0.0902887
567.354,17.466,18.948,,567.354,15947.232,16321.1,,567.354,0.109524,0.00116095,0.116095,0.096569
569.358,16.389,18.2572,,569.358,15647.003,16051.9,,569.358,0.104742,0.00113739,0.113739,0.104039
571.363,17.682,18.3435,,571.363,15345.241,15765.6,,571.363,0.115228,0.00116352,0.116352,0.110555
573.368,20.017,18.5039,,573.368,15002.594,15459.4,,573.368,0.133424,0.00119694,0.119694,0.114133
575.375,21.676,19.4723,,575.375,14677.251,15137.4,,575.375,0.147684,0.00128637,0.128637,0.117161
577.383,17.284,20.223,,577.383,14388.348,14825.5,,577.383,0.120125,0.00136407,0.136407,0.121461
579.392,11.898,17.0744,,579.392,14080.889,14521.4,,579.392,0.0844975,0.00117581,0.117581,0.123259
581.402,15.371,15.3297,,581.402,13725.902,14199,,581.402,0.111985,0.00107963,0.107963,0.122133
583.413,20.621,17.6546,,583.413,13385.451,13863.4,,583.413,0.154055,0.00127347,0.127347,0.122678
585.425,26.699,21.0203,,585.425,13055.171,13529.6,,585.425,0.204509,0.00155365,0.155365,0.126917
587.439,34.199,25.4367,,587.439,12719.47,13200.2,,587.439,0.268871,0.001927,0.1927,0.135555
589.453,47.65,32.7506,,589.453,12355.016,12856.6,,589.453,0.385673,0.00254738,0.254738,0.15531
591.468,76.887,47.9567,,591.468,12020.007,12510.8,,591.468,0.639659,0.00383323,0.383323,0.198879
593.484,120.04,74.8129,,593.484,11629.292,12156.6,,593.484,1.03222,0.00615412,0.615412,0.279659
595.501,175.124,112.565,,595.501,11274.682,11787.3,,595.501,1.55325,0.00954967,0.954967,0.414225
597.519,248.403,163.595,,597.519,10930.996,11434.4,,597.519,2.27246,0.0143073,1.43073,0.625116
599.539,339.503,230.878,,599.539,10548.047,11075.8,,599.539,3.21863,0.0208453,2.08453,0.940951
601.559,441.397,313.212,,601.559,10176.811,10704.1,,601.559,4.33728,0.029261,2.9261,1.38953
603.58,549.676,408.054,,603.58,9808.491,10337.4,,603.58,5.60408,0.0394734,3.94734,1.98971
605.602,664.391,510.535,,605.602,9418.219,9963.64,,605.602,7.05432,0.0512398,5.12398,2.75172
607.626,784.685,622.088,,607.626,9057.409,9587.64,,607.626,8.66346,0.0648844,6.48844,3.68677
609.65,906.31,738.611,,609.65,8698.072,9220.02,,609.65,10.4197,0.0801095,8.01095,4.79754
611.675,1023.654,857.442,,611.675,8328.233,8854.71,,611.675,12.2914,0.0968346,9.68346,6.07741
613.702,1123.625,970.354,,613.702,7979.385,8490.38,,613.702,14.0816,0.114289,11.4289,7.51128
615.729,1214.256,1073.22,,615.729,7646.662,8140.66,,615.729,15.8796,0.131834,13.1834,9.07111
617.757,1293.705,1167.85,,617.757,7328.948,7802.55,,617.757,17.652,0.149675,14.9675,10.73
619.787,1366.472,1252.57,,619.787,7025.484,7482.23,,619.787,19.4502,0.167407,16.7407,12.4532
621.817,1431.403,1328.63,,621.817,6663.205,7153.51,,621.817,21.4822,0.185732,18.5732,14.2182
623.849,1486.602,1397.63,,623.849,6369.927,6819.25,,623.849,23.3378,0.204954,20.4954,16.0189
625.881,1524.988,1453.85,,625.881,6094.137,6517.8,,625.881,25.0239,0.223058,22.3058,17.8382
627.915,1569.49,1502.81,,627.915,5795.847,6222.34,,627.915,27.0796,0.241518,24.1518,19.6669
629.949,1580.219,1541.46,,629.949,5497.842,5923.01,,629.949,28.7425,0.26025,26.025,21.5155
631.985,1593.668,1564.83,,631.985,5232.336,5631.12,,631.985,30.4581,0.27789,27.789,23.3641
634.021,1608.369,1583.99,,634.021,4994.07,5361.63,,634.021,32.2056,0.29543,29.543,25.188
636.059,1612.546,1598.06,,636.059,4766.117,5113.6,,636.059,33.8335,0.312511,31.2511,26.9826
638.098,1593.982,1602.31,,638.098,4517.577,4868.13,,638.098,35.284,0.329143,32.9143,28.7537
640.137,1578.044,1594.18,,640.137,4288.097,4626.12,,640.137,36.8006,0.344605,34.4605,30.4665
642.178,1563.8,1583.99,,642.178,4068.039,4392.94,,642.178,38.4411,0.360576,36.0576,32.1331
644.219,1534.817,1566.04,,644.219,3855.442,4169.94,,644.219,39.8091,0.375554,37.5554,33.7594
646.262,1517.06,1544.14,,646.262,3658.495,3957.4,,646.262,41.4668,0.390191,39.0191,35.3333
648.306,1483.575,1522.5,,648.306,3464.138,3752.83,,648.306,42.8267,0.405695,40.5695,36.8758
650.35,1440.497,1491.64,,650.35,3273.988,3551.52,,650.35,43.9982,0.420001,42.0001,38.3931
652.396,1407.276,1456.69,,652.396,3100.836,3361.83,,652.396,45.3838,0.433302,43.3302,39.8703
654.443,1368.412,1421.48,,654.443,2921.358,3180.81,,654.443,46.8416,0.446893,44.6893,41.3057
656.49,1322.889,1381.89,,656.49,2753.059,3000.92,,656.49,48.0516,0.460489,46.0489,42.7213
658.539,1274.685,1339.02,,658.539,2599.362,2830.31,,658.539,49.0384,0.473102,47.3102,44.0955
660.589,1234.257,1294.87,,660.589,2455.779,2672.75,,660.589,50.2593,0.484472,48.4472,45.4047
662.64,1183.549,1251.96,,662.64,2312.357,2524.22,,662.64,51.1837,0.495977,49.5977,46.6747
664.691,1132.588,1202.57,,664.691,2173.615,2378.41,,664.691,52.1062,0.505618,50.5618,47.8832
666.744,1094.623,1157.17,,666.744,2040.62,2237,,666.744,53.6417,0.517287,51.7287,49.0385
668.798,1052.741,1113.4,,668.798,1920.246,2104.74,,668.798,54.8232,0.528997,52.8997,50.1683
670.853,1017.546,1074.46,,670.853,1803.858,1979.23,,670.853,56.4094,0.542866,54.2866,51.3213
672.909,961.047,1031.31,,672.909,1709.54,1863.79,,672.909,56.2167,0.553341,55.3341,52.4815
674.965,919.554,984.195,,674.965,1606.44,1757.95,,674.965,57.2417,0.559853,55.9853,53.5733
677.023,877.297,939.714,,677.023,1511.369,1653.16,,677.023,58.0465,0.568434,56.8434,54.6235
679.082,833.303,896.424,,679.082,1424.436,1557.02,,679.082,58.5006,0.575731,57.5731,55.5977
681.142,799.41,855.198,,681.142,1322.742,1461.36,,681.142,60.4358,0.585206,58.5206,56.4924
683.203,755.164,816.73,,683.203,1254.116,1371.04,,683.203,60.2148,0.595699,59.5699,57.3444
685.265,713.681,774.624,,685.265,1179.629,1292.23,,685.265,60.5005,0.599446,59.9446,58.1453
687.327,674.591,732.582,,687.327,1104.938,1213.33,,687.327,61.0524,0.603779,60.3779,58.8813
689.391,641.053,693.902,,689.391,1043.367,1141.15,,689.391,61.4408,0.608074,60.8074,59.5428
691.456,602.93,656.879,,691.456,979.101,1073.44,,691.456,61.58,0.611936,61.1936,60.1425
693.522,581.409,622.718,,693.522,920.032,1009.65,,693.522,63.1944,0.616763,61.6763,60.6124
695.589,553.64,595.103,,695.589,866.953,948.17,,695.589,63.8604,0.627634,62.7634,61.1285
697.657,517.483,564.653,,697.657,814.832,891.84,,697.657,63.5079,0.633133,63.3133,61.7114
699.726,487.13,532.302,,699.726,764.473,838.303,,699.726,63.721,0.634975,63.4975,62.2552
701.796,465.325,502.218,,701.796,726.592,789.986,,701.796,64.0421,0.63573,63.573,62.74
703.867,443.754,477.276,,703.867,677.987,744.417,,703.867,65.4517,0.641141,64.1141,63.2299
705.939,415.581,452.66,,705.939,647.077,701.379,,705.939,64.2244,0.645386,64.5386,63.6768
708.012,397.547,428.31,,708.012,604.308,662.696,,708.012,65.7855,0.646314,64.6314,63.9638
710.085,370.898,405.609,,710.085,570.329,623.725,,710.085,65.0323,0.650302,65.0302,64.2678
712.16,346.886,381.448,,712.16,539.844,588.761,,712.16,64.2567,0.647882,64.7882,64.525
714.236,325.754,359.011,,714.236,511.659,556.524,,714.236,63.6662,0.645095,64.5095,64.6749
716.313,304.816,336.67,,716.313,478.551,526.21,,716.313,63.6956,0.639802,63.9802,64.6158
718.391,283.423,314.53,,718.391,452.734,495.41,,718.391,62.6025,0.634889,63.4889,64.4478
720.47,273.18,295.543,,720.47,418.83,464.811,,720.47,65.2246,0.635834,63.5834,64.1763
722.55,258.123,280.712,,722.55,391.589,433.196,,722.55,65.9168,0.648002,64.8002,64.0774
724.631,235.385,262.977,,724.631,374.361,406.446,,724.631,62.8765,0.647015,64.7015,64.1175
726.713,226.145,246.685,,726.713,354.602,384.824,,726.713,63.7743,0.641034,64.1034,64.1166
728.796,210.932,232.773,,728.796,341.466,365.659,,728.796,61.7725,0.636586,63.6586,64.1298
730.88,196.457,217.499,,730.88,327.674,349.482,,730.88,59.955,0.622349,62.2349,63.9936
732.965,189.256,205.131,,732.965,310.396,333.134,,732.965,60.9724,0.61576,61.576,63.5394
735.051,176.719,194.126,,735.051,297.457,317.468,,735.051,59.4099,0.61148,61.148,62.8582
737.138,163.655,181.953,,737.138,281.755,303.655,,737.138,58.0842,0.599209,59.9209,62.0894
739.226,157.44,170.806,,739.226,272.333,289.817,,739.226,57.8116,0.589356,58.9356,61.1893
741.315,156.392,163.586,,741.315,265.377,279.963,,741.315,58.932,0.584312,58.4312,60.3357
743.405,151.889,158.626,,743.405,255.419,269.041,,743.405,59.4666,0.589601,58.9601,59.7585
745.496,139.494,151.757,,745.496,249.917,259.515,,745.496,55.8161,0.584773,58.4773,59.2499
747.588,131.852,143.355,,747.588,236.862,251.014,,747.588,55.6662,0.571104,57.1104,58.6454
749.681,129.148,135.985,,749.681,227.883,241.189,,749.681,56.6729,0.563812,56.3812,58.0886
751.775,122.255,131.335,,751.775,220.625,232.002,,751.775,55.413,0.566096,56.6096,57.6957
753.87,114.64,124.347,,753.87,216.843,224.531,,753.87,52.8677,0.553807,55.3807,57.1559
755.966,111.155,118.044,,755.966,208.966,217.996,,755.966,53.1929,0.541496,54.1496,56.2933
758.063,103.031,112.124,,758.063,195.128,209.832,,758.063,52.8018,0.534351,53.4351,55.4955
760.161,86.489,102.583,,760.161,183.156,199.423,,760.161,47.2215,0.514398,51.4398,54.624
762.26,84.542,92.107,,762.26,171.56,187.901,,762.26,49.2784,0.49019,49.019,53.3031
764.36,86.003,88.4766,,764.36,174.316,179.93,,764.36,49.3374,0.491727,49.1727,51.9704
766.461,88.656,87.8675,,766.461,174.35,176.433,,766.461,50.8494,0.498022,49.8022,51.0029
768.562,80.816,86.7271,,768.562,175.116,175.376,,768.562,46.15,0.49452,49.452,50.2188
770.665,75.064,82.3956,,770.665,174.177,175.286,,770.665,43.0964,0.470065,47.0065,49.2591
772.769,70.095,77.3411,,772.769,166.977,172.477,,772.769,41.9788,0.448414,44.8414,48.3554
774.874,66.725,73.2538,,774.874,158.966,167.045,,774.874,41.9744,0.438529,43.8529,47.394
776.98,62.065,70.0256,,776.98,155.872,161.839,,776.98,39.8179,0.432687,43.2687,46.2568
779.087,60.83,66.6534,,779.087,156.805,158.42,,779.087,38.7934,0.420739,42.0739,44.8371
781.195,59.051,63.3723,,781.195,156.194,157.349,,781.195,37.8062,0.402749,40.2749,43.3935
783.304,61.795,61.0213,,783.304,147.827,153.492,,783.304,41.8022,0.397554,39.7554,42.1998
785.414,62.189,61.0205,,785.414,144.526,149.549,,785.414,43.0296,0.40803,40.803,41.4855
787.525,58.6,60.8344,,787.525,139.035,145.191,,787.525,42.1477,0.418995,41.8995,41.1232
789.637,52.232,58.1059,,789.637,139.446,141.858,,789.637,37.4568,0.409606,40.9606,40.8865
791.749,52.994,55.6047,,791.749,141.085,142.088,,791.749,37.5618,0.391341,39.1341,40.5926
793.863,48.604,53.587,,793.863,132.96,139.848,,793.863,36.5554,0.38318,38.318,40.363
795.978,48.622,51.6507,,795.978,133.657,136.672,,795.978,36.3782,0.377917,37.7917,39.9398
798.094,48.901,50.8395,,798.094,128.597,134.167,,798.094,38.0265,0.378927,37.8927,39.2377
800.211,41.746,48.6156,,800.211,125.54,130.027,,800.211,33.2531,0.373888,37.3888,38.4466
802.329,42.227,45.3793,,802.329,125.322,126.527,,802.329,33.6948,0.358652,35.8652,37.677
804.448,36.515,42.0377,,804.448,126.564,125.502,,804.448,28.851,0.334956,33.4956,36.8106
806.567,35.739,38.3036,,806.567,127.1,126.252,,806.567,28.1188,0.303391,30.3391,35.4946
808.688,31.314,36.2292,,808.688,125.336,125.674,,808.688,24.984,0.288279,28.8279,33.8984
810.81,34.156,35.0867,,810.81,128.377,125.906,,810.81,26.606,0.278673,27.8673,32.0436
812.933,32.467,34.7088,,812.933,128.684,127.414,,812.933,25.23,0.27241,27.241,30.2751
815.057,31.299,33.4348,,815.057,131.63,128.308,,815.057,23.778,0.260583,26.0583,28.6386
817.181,35.433,32.9709,,817.181,134.057,130.993,,817.181,26.4313,0.2517,25.17,27.3582
819.307,32.595,33.8709,,819.307,134.203,132.623,,819.307,24.2878,0.255394,25.5394,26.5751
821.434,31.219,32.6586,,821.434,138.133,134.892,,821.434,22.6007,0.24211,24.211,25.9014
823.562,33.793,33.4221,,823.562,145.596,138.069,,823.562,23.2101,0.242067,24.2067,25.2857
825.69,32.914,33.814,,825.69,157.121,145.507,,825.69,20.9482,0.232388,23.2388,24.7079
827.82,31.619,32.959,,827.82,168.83,154.695,,827.82,18.7283,0.213058,21.3058,24.0192
829.951,35.522,32.8493,,829.951,187.22,166.443,,829.951,18.9734,0.197361,19.7361,23.0019
832.082,37.02,34.7354,,832.082,198.489,179.92,,832.082,18.6509,0.19306,19.306,21.9459
834.215,24.448,32.1327,,834.215,201.865,189.843,,834.215,12.1111,0.169259,16.9259,20.7492
836.349,23.309,27.6318,,836.349,207.147,196.953,,836.349,11.2524,0.140296,14.0296,19.0194
838.483,24.715,25.7661,,838.483,222.062,205.189,,838.483,11.1298,0.125573,12.5573,17.2349
840.619,30.071,25.6314,,840.619,263.204,223.758,,840.619,11.425,0.11455,11.455,15.5797
842.755,31.733,28.2085,,842.755,318.202,257.623,,842.755,9.9726,0.109495,10.9495,13.9895
844.893,26.335,28.5871,,844.893,387.235,307.147,,844.893,6.80078,0.0930731,9.30731,12.3594
847.032,31.08,27.5997,,847.032,466.216,368.742,,847.032,6.66644,0.0748485,7.48485,10.9227
849.171,34.426,30.9197,,849.171,539.76,438.841,,849.171,6.37802,0.0704577,7.04577,9.75364
851.312,32.141,31.9379,,851.312,610.079,508.559,,851.312,5.26833,0.0628008,6.28008,8.71682
853.453,28.791,30.5255,,853.453,689.743,581.82,,853.453,4.17416,0.0524656,5.24656,7.61589
855.596,23.995,28.8506,,855.596,759.16,656.437,,855.596,3.16073,0.0439502,4.39502,6.51936
857.739,24.144,25.2161,,857.739,812.332,725.108,,857.739,2.97218,0.0347757,3.47757,5.62056
859.884,31.335,27.144,,859.884,862.41,785.218,,859.884,3.63342,0.0345688,3.45688,4.88858
862.029,24.134,27.552,,862.029,898.871,836.763,,862.029,2.68492,0.0329269,3.29269,4.24432
864.175,17.397,23.9267,,864.175,922.193,874.941,,864.175,1.88648,0.0273467,2.73467,3.69357
866.323,17.285,20.3392,,866.323,948.126,906.049,,866.323,1.82307,0.0224483,2.24483,3.22102
868.471,22.682,20.4371,,868.471,980.672,936.191,,868.471,2.3129,0.02183,2.183,2.88393
870.621,18.103,20.7728,,870.621,1024.768,969.541,,870.621,1.76655,0.0214254,2.14254,2.65084
872.771,17.242,19.2717,,872.771,1083.951,1012.27,,872.771,1.59066,0.0190381,1.90381,2.37197
874.922,16.778,17.9688,,874.922,1160.046,1067.67,,874.922,1.44632,0.0168299,1.68299,2.12379
877.075,17.093,16.3623,,877.075,1245.479,1136.88,,877.075,1.3724,0.0143924,1.43924,1.93168
879.228,17.86,16.7744,,879.228,1335.583,1215.24,,879.228,1.33724,0.0138034,1.38034,1.7819
881.382,17.456,17.0953,,881.382,1432.739,1301.79,,881.382,1.21837,0.0131321,1.31321,1.61699
883.537,17.311,17.3899,,883.537,1518.439,1391.7,,883.537,1.14005,0.0124954,1.24954,1.47291
885.694,14.297,16.675,,885.694,1584.213,1475.52,,885.694,0.902467,0.0113011,1.13011,1.35211
887.851,13.439,15.0764,,887.851,1636.196,1547.2,,887.851,0.821356,0.00974432,0.974432,1.24858
890.009,16.629,15.1298,,890.009,1657.704,1600.32,,890.009,1.00313,0.00945428,0.945428,1.15977
892.168,16.786,16.1006,,892.168,1657.649,1631.54,,892.168,1.01264,0.00986839,0.986839,1.0899
894.328,17.76,17.3919,,894.328,1620.526,1638.07,,894.328,1.09594,0.0106174,1.06174,1.04287
896.489,12.156,16.4203,,896.489,1547.895,1611.23,,896.489,0.785325,0.0101911,1.01911,1.01038
898.651,20.688,15.7872,,898.651,1475.081,1559.2,,898.651,1.4025,0.0101252,1.01252,0.995421
900.815,25.847,20.8123,,900.815,1377.637,1491.2,,900.815,1.87618,0.0139567,1.39567,1.0566
902.979,16.825,20.8206,,902.979,1265.567,1401.21,,902.979,1.32944,0.0148591,1.48591,1.15435
905.144,17.976,18.4256,,905.144,1169.907,1305.49,,905.144,1.53653,0.014114,1.4114,1.23051
907.31,18.895,17.3718,,907.31,1070.254,1208.49,,907.31,1.76547,0.0143748,1.43748,1.3011
909.477,21.267,19.0798,,909.477,984.826,1114.05,,909.477,2.15947,0.0171265,1.71265,1.42086
911.644,18.076,19.7195,,911.644,905.197,1026.83,,911.644,1.99691,0.0192043,1.92043,1.55814
913.813,15.787,18.6687,,913.813,826.463,943.294,,913.813,1.91019,0.019791,1.9791,1.65133
915.983,16.955,17.8944,,915.983,763.633,866.24,,915.983,2.22031,0.0206575,2.06575,1.76416
918.154,18.851,17.5823,,918.154,707.802,798.941,,918.154,2.66332,0.0220071,2.20071,1.9024
920.326,13.291,16.7927,,920.326,658.335,738.542,,920.326,2.01888,0.0227376,2.27376,2.0434
922.499,14.186,14.8798,,922.499,619.14,687.557,,922.499,2.29124,0.0216415,2.16415,2.1103
924.673,15.172,15.3358,,924.673,572.491,640.618,,924.673,2.65017,0.023939,2.3939,2.17916
926.847,13.793,14.9957,,926.847,533.023,594.896,,926.847,2.58769,0.0252073,2.52073,2.26749
929.023,16.051,16.1688,,929.023,495.646,552.506,,929.023,3.2384,0.0292644,2.92644,2.40016
931.2,13.581,15.6931,,931.2,450.36,511.466,,931.2,3.01559,0.0306826,3.06826,2.54364
933.377,23.021,17.1173,,933.377,421.073,471.837,,933.377,5.46722,0.036278,3.6278,2.77065
935.556,15.732,17.9949,,935.556,393.514,438.85,,935.556,3.99782,0.0410048,4.10048,3.11364
937.736,11.989,15.272,,937.736,366.863,407.672,,937.736,3.26798,0.0374614,3.74614,3.38622
939.916,16.519,14.5071,,939.916,336.849,378.683,,939.916,4.90398,0.0383095,3.83095,3.5878
942.098,13.048,13.967,,942.098,315.743,351.501,,942.098,4.13247,0.0397352,3.97352,3.77178
944.28,17.577,14.3864,,944.28,297.273,329.091,,944.28,5.91275,0.0437155,4.37155,3.96172
946.464,21.287,17.3899,,946.464,286.44,309.688,,946.464,7.43157,0.0561531,5.61531,4.20488
948.648,15.543,18.3239,,948.648,274.516,295.151,,948.648,5.66197,0.0620831,6.20831,4.60902
950.834,11.162,15.3367,,950.834,256.955,280.031,,950.834,4.34395,0.0547681,5.47681,4.99071
953.02,17.053,13.989,,953.02,245.484,264.651,,953.02,6.94668,0.0528581,5.28581,5.24688
955.207,18.399,15.8745,,955.207,237.922,252.672,,955.207,7.73321,0.0628267,6.28267,5.61205
957.396,13.199,15.8531,,957.396,231.088,242.928,,957.396,5.71168,0.0652584,6.52584,5.93279
959.585,12.271,13.7853,,959.585,230.708,237.317,,959.585,5.31884,0.0580883,5.80883,5.95167
961.775,12.798,12.7794,,961.775,226.509,233.313,,961.775,5.65011,0.0547737,5.47737,5.87307
963.966,16.415,13.2473,,963.966,221.946,228.965,,963.966,7.39594,0.0578572,5.78572,5.95333
966.159,22.032,16.2757,,966.159,215.292,223.899,,966.159,10.2335,0.0726922,7.26922,6.1411
968.352,16.83,18.1674,,968.352,215.365,219.144,,968.352,7.81464,0.0829016,8.29016,6.44363
970.546,17.356,17.0927,,970.546,215.711,216.856,,970.546,8.04595,0.0788202,7.88202,6.75364
972.741,13.335,16.6478,,972.741,212.511,215.025,,972.741,6.27497,0.0774226,7.74226,7.17484
974.937,16.314,14.9613,,974.937,210.31,212.698,,974.937,7.75712,0.0703406,7.03406,7.47676
977.134,10.93,14.0354,,977.134,212.746,211.681,,977.134,5.13758,0.0663043,6.63043,7.58884
979.332,11.636,12.007,,979.332,213.999,212.673,,979.332,5.43741,0.0564577,5.64577,7.22925
981.531,12.887,12.2222,,981.531,226.343,215.416,,981.531,5.69357,0.0567375,5.67375,6.77794
983.731,15.955,12.6993,,983.731,234.142,224.264,,983.731,6.81424,0.0566265,5.66265,6.34592
985.932,17.933,14.534,,985.932,233.939,229.218,,985.932,7.66567,0.0634071,6.34071,6.1038
988.134,17.637,15.896,,988.134,243.737,234.062,,988.134,7.23608,0.0679134,6.79134,6.03895
990.336,14.341,16.309,,990.336,255.716,241.973,,990.336,5.60817,0.0674001,6.74001,6.14604
992.54,11.863,14.2801,,992.54,261.968,250.41,,992.54,4.52842,0.0570268,5.70268,6.22445
994.745,17.112,14.9246,,994.745,267.673,257.952,,994.745,6.39287,0.0578581,5.78581,6.24463
996.951,18.723,16.5872,,996.951,275.56,265.407,,996.951,6.79453,0.0624972,6.24972,6.28397
999.157,22.88,19.1271,,999.157,287.447,272.94,,999.157,7.95973,0.0700783,7.00783,6.31686
1001.365,17.764,19.2411,,1001.365,296.424,282.111,,1001.365,5.99277,0.0682042,6.82042,6.33563
1003.573,13.647,17.566,,1003.573,306.674,291.529,,1003.573,4.45,0.0602547,6.02547,6.30659
1005.783,19.348,17.1501,,1005.783,321.741,302.439,,1005.783,6.01353,0.0567059,5.67059,6.31438
1007.993,13.594,17.2689,,1007.993,339.626,317.384,,1007.993,4.00264,0.0544102,5.44102,6.22388
1010.205,23.567,17.6615,,1010.205,357.42,333.92,,1010.205,6.59364,0.0528915,5.28915,5.97529
1012.417,19.994,20.4385,,1012.417,379.486,351.275,,1012.417,5.26871,0.0581836,5.81836,5.71992
1014.631,16.875,19.0995,,1014.631,405.551,372.643,,1014.631,4.16101,0.0512543,5.12543,5.51826
1016.845,15.392,17.7682,,1016.845,432.98,396.621,,1016.845,3.5549,0.0447989,4.47989,5.30484
1019.06,9.727,14.7093,,1019.06,471.045,424.948,,1019.06,2.06498,0.0346144,3.46144,4.95235
1021.277,14.606,12.9813,,1021.277,501.291,456.584,,1021.277,2.91368,0.0284314,2.84314,4.52377
1023.494,15.485,14.2911,,1023.494,523.264,484.683,,1023.494,2.95931,0.0294855,2.94855,4.01836
1025.712,12.364,14.4651,,1025.712,550.418,510.572,,1025.712,2.24629,0.0283312,2.83312,3.50819
1027.931,11.605,13.4498,,1027.931,568.39,536.22,,1027.931,2.04173,0.0250826,2.50826,3.07858
1030.151,12.028,13.2288,,1030.151,579.543,554.781,,1030.151,2.07543,0.0238451,2.38451,2.76642
1032.372,14.359,12.945,,1032.372,592.787,571.044,,1032.372,2.42229,0.022669,2.2669,2.60967
1034.594,13.599,13.3972,,1034.594,595.121,583.612,,1034.594,2.28508,0.0229557,2.29557,2.503
1036.817,12.111,12.7815,,1036.817,599.091,590.118,,1036.817,2.02156,0.0216592,2.16592,2.37065
1039.041,13.259,12.8005,,1039.041,600.696,595.849,,1039.041,2.20727,0.0214828,2.14828,2.27054
1041.266,18.86,13.8167,,1041.266,615.211,602.775,,1041.266,3.06561,0.0229218,2.29218,2.23679
1043.492,14.189,14.5812,,1043.492,618.997,611.694,,1043.492,2.29226,0.0238375,2.38375,2.25475
1045.718,13.334,13.9239,,1045.718,613.056,613.932,,1045.718,2.17501,0.0226798,2.26798,2.25792
1047.946,13.843,13.7407,,1047.946,622.659,616.056,,1047.946,2.22321,0.0223043,2.23043,2.2529
1050.175,15.806,14.3545,,1050.175,619.807,619.39,,1050.175,2.55015,0.0231753,2.31753,2.28223
1052.405,9.223,13.1063,,1052.405,617.318,618.355,,1052.405,1.49404,0.0211954,2.11954,2.29061
1054.635,9.638,11.1044,,1054.635,616.465,617.427,,1054.635,1.56343,0.0179849,1.79849,2.19536
1056.867,11.872,10.7203,,1056.867,614.339,616.338,,1056.867,1.93248,0.0173935,1.73935,2.08637
1059.099,13.468,11.9175,,1059.099,611.576,614.856,,1059.099,2.20218,0.0193825,1.93825,2.01619
1061.333,11.882,13.3097,,1061.333,602.448,611.407,,1061.333,1.97229,0.0217689,2.17689,1.98934
1063.567,16.477,13.776,,1063.567,594.774,604.965,,1063.567,2.7703,0.0227716,2.27716,1.96979
1065.802,19.889,15.7405,,1065.802,591.191,598.552,,1065.802,3.36423,0.0262977,2.62977,2.07082
1068.039,11.846,15.669,,1068.039,584.425,593.979,,1068.039,2.02695,0.0263797,2.63797,2.24283
1070.276,12.529,13.7234,,1070.276,578.385,587.974,,1070.276,2.1662,0.0233401,2.33401,2.35409
1072.514,11.212,13.0351,,1072.514,568.981,580.469,,1072.514,1.97054,0.0224561,2.24561,2.39845
1074.753,8.439,11.6513,,1074.753,569.85,575.284,,1074.753,1.48092,0.0202532,2.02532,2.38688
1076.993,6.847,10.6002,,1076.993,557.626,569.992,,1076.993,1.22788,0.0185971,1.85971,2.29531
1079.234,8.163,9.46992,,1079.234,555.402,562.556,,1079.234,1.46975,0.0168337,1.68337,2.10844
1081.476,8.479,8.91471,,1081.476,553.268,558.451,,1081.476,1.53253,0.0159633,1.59633,1.94633
1083.719,2.43,6.65471,,1083.719,545.496,554.823,,1083.719,0.445466,0.0119943,1.19943,1.76623
1085.963,4.835,5.13794,,1085.963,533.633,546.855,,1085.963,0.906053,0.00939542,0.939542,1.54648
1088.208,11.784,7.43194,,1088.208,527.133,538.509,,1088.208,2.23549,0.013801,1.3801,1.40813
1090.454,11.005,9.35885,,1090.454,525.905,532.379,,1090.454,2.09258,0.0175793,1.75793,1.39216
1092.772,14.043,10.6125,,1092.772,518.494,526.253,,1092.772,2.70842,0.0201662,2.01662,1.44311
1094.985,16.444,12.1883,,1094.985,516.445,519.848,,1094.985,3.18408,0.0234459,2.34459,1.59208
1097.197,17.663,15.1204,,1097.197,516.578,518.054,,1097.197,3.41923,0.0291869,2.91869,1.91449
1099.409,10.152,14.413,,1099.409,504.074,513.399,,1099.409,2.01399,0.0280737,2.80737,2.25785
1101.622,13.914,13.3026,,1101.622,501.659,507.463,,1101.622,2.7736,0.0262139,2.62139,2.45534
1103.834,15.675,14.3009,,1103.834,488.698,501.131,,1103.834,3.2075,0.0285372,2.85372,2.63092
1106.047,10.889,13.2613,,1106.047,483.282,493.714,,1106.047,2.25314,0.0268603,2.68603,2.7446
1108.259,8.284,10.4526,,1108.259,474.683,486.317,,1108.259,1.74516,0.0214935,2.14935,2.68035
1110.472,8.678,10.1535,,1110.472,471.264,479.163,,1110.472,1.84143,0.0211901,2.11901,2.51939
1112.684,9.434,9.59201,,1112.684,471.027,474.964,,1112.684,2.00286,0.0201952,2.01952,2.40264
1114.897,6.826,9.40319,,1114.897,459.152,469.441,,1114.897,1.48665,0.0200306,2.00306,2.27255
1117.109,8.307,8.22798,,1117.109,452.004,461.556,,1117.109,1.83782,0.0178266,1.78266,2.08489
1119.321,7.06,8.33636,,1119.321,444.854,455.114,,1119.321,1.58704,0.0183171,1.83171,1.96566
1121.534,12.176,9.05032,,1121.534,436.522,447.135,,1121.534,2.78932,0.0202407,2.02407,1.92972
1123.746,14.381,11.4763,,1123.746,433.189,440.343,,1123.746,3.3198,0.0260621,2.60621,2.00098
1125.959,9.677,12.3956,,1125.959,422.491,435.03,,1125.959,2.29046,0.0284937,2.84937,2.15985
1128.171,8.425,9.95678,,1128.171,409.246,425.119,,1128.171,2.05866,0.0234212,2.34212,2.26904
1130.384,13.718,11.6876,,1130.384,401.001,414.743,,1130.384,3.42094,0.0281803,2.81803,2.42663
1132.596,7.646,11.8228,,1132.596,390.936,405.394,,1132.596,1.95582,0.0291637,2.91637,2.63594
1134.809,9.391,10.22,,1134.809,382.688,396.804,,1134.809,2.45396,0.0257559,2.57559,2.70299
1137.021,13.044,10.6543,,1137.021,371.531,387.432,,1137.021,3.51088,0.0274997,2.74997,2.67722
1139.233,10.696,10.8332,,1139.233,365.917,378.168,,1139.233,2.92307,0.0286467,2.86467,2.7322
1141.446,9.71,10.1977,,1141.446,355.303,369.536,,1141.446,2.73288,0.0275958,2.75958,2.7964
1143.658,10.632,10.101,,1143.658,344.505,357.825,,1143.658,3.08617,0.0282288,2.82288,2.76733
1145.871,8.644,9.12927,,1145.871,340.343,349.602,,1145.871,2.53979,0.0261134,2.61134,2.77326
1148.083,13.2,9.7905,,1148.083,326.18,342.185,,1148.083,4.04685,0.0286117,2.86117,2.79532
1150.296,7.846,11.4124,,1150.296,320.471,332.139,,1150.296,2.44827,0.0343605,3.43605,2.88437
1152.508,6.127,8.52254,,1152.508,310.396,323.888,,1152.508,1.97393,0.0263132,2.63132,2.88749
1154.721,10.771,8.96394,,1154.721,296.048,311.866,,1154.721,3.63826,0.0287429,2.87429,2.88027
1156.933,7.686,9.33148,,1156.933,294.972,303.517,,1156.933,2.60567,0.0307445,3.07445,2.92941
1159.145,3.6,6.64422,,1159.145,290.894,299.059,,1159.145,1.23756,0.0222171,2.22171,2.90144
1161.358,7.24,5.86918,,1161.358,277.725,291.297,,1161.358,2.6069,0.0201484,2.01484,2.66584
1163.57,6.697,5.86291,,1163.57,272.555,282.078,,1163.57,2.45712,0.0207847,2.07847,2.48067
1165.783,3.972,4.95288,,1165.783,262.111,273.739,,1165.783,1.51539,0.0180934,1.80934,2.34685
1167.995,4.518,4.14737,,1167.995,255.484,264.346,,1167.995,1.76841,0.0156891,1.56891,2.08461
1170.208,6.426,5.68238,,1170.208,251.947,258.469,,1170.208,2.55054,0.0219848,2.19848,1.94506
1172.42,8.061,6.04868,,1172.42,239.228,251.874,,1172.42,3.36959,0.0240147,2.40147,2.01231
1174.633,11.059,8.15935,,1174.633,233.962,243.314,,1174.633,4.72684,0.0335342,3.35342,2.19791
1176.845,11.419,9.24781,,1176.845,233.696,237.788,,1176.845,4.88626,0.038891,3.8891,2.52667
1179.057,12.415,10.3839,,1179.057,227.519,234.273,,1179.057,5.45669,0.044324,4.4324,3.00264
1181.27,11.319,10.7558,,1181.27,221.706,229.789,,1181.27,5.10541,0.0468073,4.68073,3.54527
1183.482,10.677,9.84433,,1183.482,213.346,223.527,,1183.482,5.00455,0.0440409,4.40409,3.96906
1185.695,13.035,11.8542,,1185.695,208.713,217.508,,1185.695,6.24542,0.0544998,5.44998,4.4048
1187.907,4.119,10.7574,,1187.907,205.989,212.148,,1187.907,1.99962,0.0507073,5.07073,4.73754
1190.12,0.656,6.776,,1190.12,204.264,209.467,,1190.12,0.321153,0.0323488,3.23488,4.68208
1192.332,6.558,5.0151,,1192.332,196.265,204.049,,1192.332,3.3414,0.0245779,2.45779,4.287
1194.545,12.186,7.26296,,1194.545,189.358,197.741,,1194.545,6.43543,0.0367297,3.67297,4.02835
1196.757,7.904,8.31695,,1196.757,193.177,193.961,,1196.757,4.09158,0.0428795,4.28795,3.93677
1198.969,4.531,7.43606,,1198.969,190.906,193.006,,1198.969,2.37342,0.0385275,3.85275,3.64362
1201.182,6.977,7.12074,,1201.182,186.088,190.567,,1201.182,3.7493,0.037366,3.7366,3.52871
1203.394,6.877,7.82514,,1203.394,191.18,189.25,,1203.394,3.59713,0.0413482,4.13482,3.76586
1205.607,12.232,9.44051,,1205.607,190.818,190.793,,1205.607,6.4103,0.0494805,4.94805,4.08545
1207.819,11.041,11.5903,,1207.819,187.182,190.204,,1207.819,5.89854,0.0609363,6.09363,4.3867
1210.032,6.669,10.3318,,1210.032,177.456,185.966,,1210.032,3.75811,0.0555575,5.55575,4.68388
1212.244,7.388,9.42509,,1212.244,174.367,180.512,,1212.244,4.23704,0.0522132,5.22132,4.97758
1214.456,5.199,7.42858,,1214.456,171.188,177.486,,1214.456,3.03701,0.0418545,4.18545,5.09282
1216.669,10.465,7.47194,,1216.669,160.555,172.299,,1216.669,6.51802,0.043366,4.3366,5.05169
1218.881,12.277,9.6302,,1218.881,145.922,163.047,,1218.881,8.4134,0.0590638,5.90638,5.05287
1221.094,7.545,9.50114,,1221.094,131.745,151.738,,1221.094,5.72697,0.0626154,6.26154,5.12391
1223.306,9.814,8.13179,,1223.306,122.66,140.321,,1223.306,8.00098,0.0579511,5.79511,5.2349
1225.519,12.448,9.60232,,1225.519,114.121,128.737,,1225.519,10.9077,0.0745887,7.45887,5.6569
1227.731,8.447,10.4515,,1227.731,109.584,119.879,,1227.731,7.70824,0.0871838,8.71838,6.53852
1229.944,6.447,8.96753,,1229.944,106.866,114.308,,1229.944,6.03279,0.0784506,7.84506,7.12783
1232.156,9.268,8.94664,,1232.156,99.241,108.599,,1232.156,9.33888,0.0823826,8.23826,7.47509
1234.368,7.09,8.60028,,1234.368,90.436,101.027,,1234.368,7.8398,0.0851289,8.51289,7.95573
1236.581,9.006,8.63473,,1236.581,87.178,95.8468,,1236.581,10.3306,0.0900888,9.00888,8.37996
1238.793,15.469,10.3273,,1238.793,79.468,89.054,,1238.793,19.4657,0.115966,11.5966,8.82985
1241.006,14.39,12.4434,,1241.006,75.305,83.0192,,1241.006,19.109,0.149885,14.9885,9.91948
1242.586,10.65,12.5423,,1242.586,69.901,79.3938,,1242.586,15.2358,0.157976,15.7976,