File: public_html/data/backup/schreiberglass-Kobaltblau_7884.csv
wavelength_nm,intensity,intensity_smoothed,,wavelength_nm2,intensity_i0,intensity_i0_smoothed,,wavelength_nm3,,transmission,transmission_perc,transmission_perc_smoothed
173.232,21.748,#N/A,,173.232,19.372,#N/A,,173.232,112.265,#N/A,#N/A,#N/A
175.084,37.551,25.1208,,175.084,33.69,22.9547,,175.084,111.46,1.09437,109.437,#N/A
176.935,43.369,33.4026,,176.935,35.507,28.7339,,176.935,122.142,1.16248,116.248,#N/A
178.787,38.55,37.3665,,178.787,32.052,29.5431,,178.787,120.273,1.26482,126.482,#N/A
180.639,42.55,38.3007,,180.639,39.87,32.1451,,180.639,106.722,1.19149,119.149,#N/A
182.491,40.913,39.6946,,182.491,38.233,36.3785,,182.491,107.01,1.09116,109.116,#N/A
184.342,42.095,39.8197,,184.342,31.233,35.1993,,184.342,134.777,1.13126,113.126,116.03
186.194,43.912,41.8083,,186.194,35.141,34.1309,,186.194,124.959,1.22494,122.494,117.747
188.046,39.276,41.5307,,188.046,33.414,34.1736,,188.046,117.544,1.21529,121.529,117.907
189.897,44.639,40.4778,,189.897,31.959,33.1214,,189.897,139.676,1.22211,122.211,117.616
191.749,43.275,41.8588,,191.749,30.958,32.8964,,191.749,139.786,1.27244,127.244,119.981
193.601,39.184,41.6234,,193.601,36.958,33.1093,,193.601,106.023,1.25715,125.715,123.486
195.453,36.729,39.2089,,195.453,35.139,34.5047,,195.453,104.525,1.13634,113.634,123.1
197.304,46.274,40.7307,,197.304,32.684,33.3048,,197.304,141.58,1.22297,122.297,122.255
199.156,39.637,42.1252,,199.156,31.229,32.1767,,199.156,126.924,1.30918,130.918,123.781
201.008,39.001,39.9881,,201.008,33.41,32.5906,,201.008,116.735,1.22698,122.698,123.931
202.86,43,39.8617,,202.86,33.046,32.9429,,202.86,130.122,1.21002,121.002,122.468
204.711,45.909,42.4831,,204.711,35.046,34.2754,,204.711,130.996,1.23946,123.946,123.283
206.563,42.182,43.7468,,206.563,39.227,35.2897,,206.563,107.533,1.23965,123.965,125.284
208.415,38.272,41.6991,,208.415,44.135,39.2673,,208.415,86.7158,1.06193,106.193,122.381
210.267,36.908,40.3982,,210.267,38.771,40.755,,210.267,95.1949,0.991247,99.1247,117.012
212.118,34.999,38.6389,,212.118,35.953,39.9513,,212.118,97.3465,0.96715,96.715,112.407
213.97,38.089,38.0397,,213.97,35.043,37.0852,,213.97,108.692,1.02574,102.574,108.113
215.822,39.089,38.4941,,215.822,34.588,36.235,,215.822,113.013,1.06235,106.235,104.18
217.673,40.543,38.8524,,217.673,38.315,36.4701,,217.673,105.815,1.06532,106.532,102.268
219.525,42.997,40.3864,,219.525,36.314,37.2076,,219.525,118.403,1.08543,108.543,103.287
221.377,43.27,42.1006,,221.377,33.314,35.1484,,221.377,129.885,1.1978,119.78,106.841
223.229,42.906,42.65,,223.229,30.586,34.7675,,223.229,140.28,1.22672,122.672,111.276
225.08,43.087,43.15,,225.08,30.312,31.8506,,225.08,142.145,1.35476,135.476,116.626
226.932,42.814,42.6085,,226.932,40.857,34.2874,,226.932,104.79,1.24269,124.269,120.931
228.784,44.905,42.6203,,228.784,39.039,37.7254,,228.784,115.026,1.12975,112.975,122.601
230.636,44.995,44.2087,,230.636,38.674,39.4259,,230.636,116.344,1.12131,112.131,122.388
232.487,41.995,43.4466,,232.487,34.674,37.3684,,232.487,121.114,1.16266,116.266,121.236
234.339,46.449,43.3097,,234.339,39.219,37.2061,,234.339,118.435,1.16405,116.405,118.83
236.191,45.358,45.3317,,236.191,38.855,38.0541,,236.191,116.737,1.19125,119.125,115.906
238.043,48.357,45.2605,,238.043,42.854,39.816,,238.043,112.841,1.13674,113.674,115.367
239.894,55.357,49.0675,,239.894,50.49,43.6746,,239.894,109.64,1.12348,112.348,115.331
241.746,52.356,53.1316,,241.746,58.489,49.6724,,241.746,89.5143,1.06964,106.964,114.443
243.598,52.356,52.9897,,243.598,58.307,54.5294,,243.598,89.7937,0.971765,97.1765,111.256
245.449,54.719,53.8777,,245.449,61.124,56.9949,,245.449,89.5213,0.945307,94.5307,107.034
247.301,57.355,54.1938,,247.301,64.488,60.3314,,247.301,88.939,0.898268,89.8268,102.207
249.153,60.173,56.7502,,249.153,70.123,63.8932,,249.153,85.8106,0.888203,88.8203,97.7865
251.005,57.082,57.6726,,251.005,74.577,68.4614,,251.005,76.541,0.842409,84.2409,92.9866
252.856,60.627,57.8425,,252.856,75.668,72.1496,,252.856,80.1224,0.801702,80.1702,89.0763
254.681,67.445,61.4599,,254.681,82.758,75.8182,,254.681,81.4967,0.810622,81.0622,86.2251
256.513,62.808,64.2495,,256.513,84.939,79.6534,,256.513,73.9448,0.806614,80.6614,84.0737
258.347,62.08,62.3678,,258.347,79.12,81.0065,,258.347,78.4631,0.769911,76.9911,81.7924
260.181,68.443,63.4975,,260.181,79.574,78.8582,,260.181,86.0118,0.805212,80.5212,80.2537
262.017,64.988,65.592,,262.017,86.028,80.7691,,262.017,75.5428,0.812092,81.2092,80.0982
263.853,65.443,65.2123,,263.853,83.755,82.9695,,263.853,78.1362,0.785979,78.5979,79.8099
265.691,67.533,65.8386,,265.691,81.118,83.0698,,265.691,83.2528,0.792571,79.2571,79.3164
267.53,74.624,68.3116,,267.53,83.208,82.7602,,267.53,89.6837,0.825417,82.5417,79.8354
269.369,72.26,71.1051,,269.369,83.662,83.0511,,269.369,86.3714,0.85616,85.616,81.1733
271.21,67.623,70.0001,,271.21,87.48,84.5473,,271.21,77.3011,0.82794,82.794,81.61
273.052,70.441,69.6857,,273.052,81.934,85.4352,,273.052,85.9729,0.815656,81.5656,81.9624
274.895,70.531,69.7851,,274.895,78.478,82.5038,,274.895,89.8736,0.845841,84.5841,82.9607
276.739,67.985,69.0762,,276.739,82.66,80.8835,,276.739,82.2466,0.854022,85.4022,83.9422
278.584,68.167,68.1787,,278.584,85.932,82.765,,278.584,79.3267,0.823762,82.3762,83.7396
280.431,73.53,69.3956,,280.431,83.295,83.2018,,280.431,88.2766,0.834064,83.4064,83.3547
282.278,75.893,71.8095,,282.278,85.294,83.2551,,282.278,88.9781,0.862523,86.2523,84.0827
284.126,75.711,73.9808,,284.126,88.657,85.4949,,284.126,85.3977,0.865324,86.5324,84.7701
285.976,78.437,75.6978,,285.976,83.656,85.7767,,285.976,93.7614,0.882498,88.2498,85.121
287.826,76.983,75.9936,,287.826,82.383,83.9464,,287.826,93.4452,0.905264,90.5264,86.2304
289.678,72.346,74.4344,,289.678,79.2,83.0632,,289.678,91.346,0.896117,89.6117,87.6721
291.531,80.254,74.461,,291.531,81.2,82.3258,,291.531,98.835,0.904467,90.4467,88.6815
293.385,80.618,77.8192,,293.385,83.108,82.4176,,293.385,97.0039,0.944206,94.4206,90.0047
295.239,74.163,76.7503,,295.239,88.835,84.634,,295.239,83.484,0.90685,90.685,91.0827
297.095,69.162,74.301,,297.095,81.652,85.6638,,297.095,84.7034,0.867355,86.7355,90.7434
298.952,71.707,71.9152,,298.952,81.833,83.2325,,298.952,87.626,0.864027,86.4027,90.0364
300.81,83.525,74.9561,,300.81,81.56,81.5078,,300.81,102.409,0.919619,91.9619,90.0731
302.669,80.888,78.9325,,302.669,83.559,82.7159,,302.669,96.8035,0.954261,95.4261,90.572
304.53,80.16,80.0568,,304.53,86.377,84.3667,,304.53,92.8025,0.948915,94.8915,90.8511
306.391,73.887,79.1881,,306.391,81.558,85.6932,,306.391,90.5944,0.924088,92.4088,91.7302
308.253,78.432,77.6902,,308.253,77.193,82.5594,,308.253,101.605,0.941022,94.1022,93.0052
310.117,80.432,79.146,,310.117,80.284,80.8732,,310.117,100.184,0.978642,97.8642,94.6982
311.981,77.613,78.8805,,311.981,82.556,80.9298,,311.981,94.0125,0.974678,97.4678,95.3853
313.847,85.612,79.9359,,313.847,87.373,81.8857,,313.847,97.9845,0.97619,97.619,95.7299
315.713,83.976,83.7926,,315.713,91.463,85.5911,,315.713,91.8142,0.978987,97.8987,96.4906
317.581,77.248,80.9698,,317.581,90.19,88.5784,,317.581,85.6503,0.914103,91.4103,96.6254
319.45,89.884,83.7595,,319.45,89.644,89.3886,,319.45,100.268,0.937027,93.7027,95.8273
321.319,85.792,86.5876,,321.319,82.188,88.1012,,321.319,104.385,0.98282,98.282,95.6167
323.19,86.519,86.9116,,323.19,84.46,86.0177,,323.19,102.438,1.01039,101.039,96.2067
325.062,87.7,87.0063,,325.062,83.46,85.5423,,325.062,105.08,1.01711,101.711,96.8636
326.935,87.791,87.3171,,326.935,85.55,84.6431,,326.935,102.62,1.03159,103.159,98.3326
328.809,95.427,89.2456,,328.809,90.003,86.1662,,328.809,106.026,1.03574,103.574,100.62
330.685,94.517,93.112,,330.685,84.73,86.5262,,330.685,111.551,1.07611,107.611,102.629
332.561,93.244,93.1104,,332.561,84.275,85.7221,,332.561,110.643,1.08619,108.619,104.306
334.438,102.061,95.8059,,334.438,84.547,85.1362,,334.438,120.715,1.12533,112.533,106.167
336.316,98.425,97.9435,,336.316,86.728,85.1043,,336.316,113.487,1.15086,115.086,108.502
338.196,94.242,95.9401,,338.196,87.454,86.1917,,338.196,107.762,1.1131,111.31,110.285
340.076,98.333,95.4772,,340.076,87.272,86.6237,,340.076,112.674,1.10221,110.221,111.258
341.958,107.787,99.1348,,341.958,89.18,87.7807,,341.958,120.865,1.12935,112.935,112.013
343.84,106.877,103.495,,343.84,90.543,88.5763,,343.84,118.04,1.16843,116.843,113.132
345.724,107.513,104.349,,345.724,91.815,89.3781,,345.724,117.097,1.16751,116.751,113.611
347.609,113.341,106.607,,347.609,89.459,89.3094,,347.609,126.696,1.19368,119.368,114.45
349.495,110.337,109.839,,349.495,93.627,89.9856,,349.495,117.847,1.22063,122.063,116.544
351.382,117.525,111.386,,351.382,88.843,90.5661,,351.382,132.284,1.22988,122.988,118.551
353.269,127.137,117.303,,353.269,93.573,90.4043,,353.269,135.869,1.29753,129.753,121.008
355.158,126.731,121.908,,355.158,96.749,92.356,,355.158,130.989,1.31998,131.998,123.78
357.048,127.855,124.472,,357.048,99.65,95.0671,,357.048,128.304,1.3093,130.93,126.492
358.94,136.203,128.058,,358.94,98.941,97.5787,,358.94,137.661,1.31235,131.235,128.339
360.832,144.751,134.336,,360.832,101.901,98.6542,,360.832,142.051,1.36169,136.169,130.836
362.725,152.408,142.037,,362.725,105.458,101.011,,362.725,144.52,1.40616,140.616,133.37
364.619,151.776,147.86,,364.619,101.394,103.29,,364.619,149.689,1.4315,143.15,135.532
366.515,161.011,152.637,,366.515,105.344,103.188,,366.515,152.843,1.47921,147.921,138.281
368.411,169.943,159.609,,368.411,107.973,105.209,,368.411,157.394,1.51707,151.707,142.123
370.308,171.513,165.856,,370.308,107.574,106.432,,370.308,159.437,1.55833,155.833,146.17
372.207,178.638,170.673,,372.207,109.207,108.154,,372.207,163.577,1.57805,157.805,149.816
374.107,191.331,177.492,,374.107,105.746,107.353,,374.107,180.935,1.65335,165.335,153.813
376.007,204.111,186.603,,376.007,116.159,108.759,,376.007,175.717,1.71574,171.574,158.62
377.909,208.89,197.025,,377.909,120.542,113.575,,377.909,173.292,1.73475,173.475,163.033
379.812,216.297,205.088,,379.812,118.467,116.59,,379.812,182.58,1.75905,175.905,167.006
381.716,220.333,212.96,,381.716,114.164,116.666,,381.716,192.997,1.82539,182.539,171.466
383.62,223.419,216.842,,383.62,117.663,117.335,,383.62,189.88,1.84806,184.806,175.962
385.526,241.934,224.269,,385.526,126.349,119.584,,385.526,191.481,1.87541,187.541,179.398
387.433,248.325,234.712,,387.433,123.393,123.038,,387.433,201.247,1.90764,190.764,182.647
389.341,271.598,246.941,,389.341,126.559,123.366,,389.341,214.602,2.0017,200.17,187.108
391.25,304.306,269.44,,391.25,135.632,127.709,,391.25,224.362,2.1098,210.98,192.687
393.161,330.301,294.441,,393.161,147.268,133.945,,393.161,224.286,2.19822,219.822,199.146
395.072,377.116,324.745,,395.072,168.081,146.483,,395.072,224.366,2.21695,221.695,205.745
396.984,444.267,369.25,,396.984,196.506,164.926,,396.984,226.083,2.23888,223.888,212.237
398.897,526.928,428.018,,398.897,244.17,193.507,,398.897,215.804,2.21189,221.189,217.522
400.812,652.701,508.954,,400.812,307.693,235.647,,400.812,212.127,2.15981,215.981,219.882
402.727,848.182,630.644,,402.727,400.782,295.019,,402.727,211.632,2.13764,213.764,219.655
404.644,1114.671,807.689,,404.644,535.775,382.114,,404.644,208.048,2.11374,211.374,218.038
406.561,1488.714,1056.02,,406.561,730.803,509.205,,406.561,203.709,2.07386,207.386,215.427
408.48,2047.774,1415.64,,408.48,1021.145,694.926,,408.48,200.537,2.0371,203.71,211.899
410.4,2844.033,1935.78,,410.4,1452.911,968.406,,410.4,195.747,1.99893,199.893,208.572
412.32,3968.943,2677.95,,412.32,2070.227,1369.03,,412.32,191.715,1.95609,195.609,205.156
414.242,5523.24,3726.02,,414.242,2939.2,1943.03,,414.242,187.916,1.91764,191.764,201.388
416.165,7638.419,5174.01,,416.165,4112.633,2746.6,,416.165,185.731,1.88379,188.379,197.51
418.089,10444,7139.76,,418.089,5705.194,3845.15,,418.089,183.061,1.85682,185.682,193.865
420.014,14096.898,9755.42,,420.014,7809.094,5328.01,,420.014,180.519,1.83097,183.097,190.382
421.939,18644.94,13140.9,,421.939,10487.644,7275.23,,421.939,177.78,1.80626,180.626,187.229
423.866,24089.178,17355.9,,423.866,13764.393,9756.34,,423.866,175.011,1.77893,177.893,184.339
425.795,45510.063,25690.6,,425.795,17656.791,12809.7,,425.795,257.748,2.00556,200.556,184.223
427.724,62431.062,41490.7,,427.724,22181.078,16466.7,,427.724,281.461,2.51968,251.968,193.793
429.654,62704.126,52451.6,,429.654,27351.265,20737,,429.654,229.255,2.52938,252.938,207.282
431.585,63489.737,57992.9,,431.585,33285.158,25669.4,,431.585,190.745,2.25922,225.922,217.171
433.517,63967.9,61008.2,,433.517,39884.594,31296.3,,433.517,160.382,1.94937,194.937,221.766
435.451,64000,62566.5,,435.451,47143.109,37597.2,,435.451,135.757,1.66412,166.412,220.315
437.385,64000,63314.3,,437.385,54434.033,44457.5,,437.385,117.574,1.42416,142.416,206.177
439.32,64000,63672.1,,439.32,60243.57,51246.6,,439.32,106.235,1.24246,124.246,182.049
441.257,64000,63843.1,,441.257,63057.251,56809.8,,441.257,101.495,1.12381,112.381,158.048
443.194,63732.621,63887.3,,443.194,62937.998,60139.8,,443.194,101.263,1.06231,106.231,138.202
445.133,62840.005,63602.8,,445.133,61193.827,61214.9,,445.133,102.69,1.03901,103.901,123.441
447.072,61804.631,62943.6,,447.072,57512.632,60395.7,,447.072,107.463,1.04219,104.219,113.653
449.013,60467.711,62036.8,,449.013,50613.182,57272.4,,449.013,119.47,1.08319,108.319,108.496
450.955,57339.483,60576.4,,450.955,41975.067,51614.2,,450.955,136.604,1.17364,117.364,107.71
452.897,49866.933,57171.1,,452.897,34059.554,44507.7,,452.897,146.411,1.28452,128.452,110.736
454.841,40712.687,50986.3,,454.841,27745.913,37380.7,,454.841,146.734,1.36397,136.397,116.298
456.786,33191.609,43627.7,,456.786,22921.571,31061.9,,456.786,144.805,1.40454,140.454,123.051
458.732,27321.762,36619.2,,458.732,19248.14,25831.9,,458.732,141.945,1.41759,141.759,129.851
460.679,22663.822,30537.5,,460.679,16354.743,21633,,460.679,138.576,1.41162,141.162,135.451
462.627,18786.358,25414.5,,462.627,13872.676,18231.7,,462.627,135.42,1.39397,139.397,138.811
464.576,15472.974,21089.3,,464.576,11728.808,15397.6,,464.576,131.923,1.36965,136.965,139.847
466.526,12731.103,17435.1,,466.526,9934.298,13011.9,,466.526,128.153,1.33993,133.993,139.179
468.477,10483.887,14386.6,,468.477,8502.236,11025.8,,468.477,123.307,1.30481,130.481,137.349
470.429,8706.896,11874.1,,470.429,7363.688,9405.6,,470.429,118.241,1.26245,126.245,134.674
472.382,7356.738,9861.86,,472.382,6502.234,8109.32,,472.382,113.142,1.21611,121.611,131.36
474.336,6301.142,8275.86,,474.336,5844.546,7096.97,,474.336,107.812,1.16611,116.611,127.512
476.292,5462.591,7022.21,,476.292,5343.422,6310.11,,476.292,102.23,1.11285,111.285,123.178
478.248,4825.73,6039.41,,478.248,4960.583,5704.02,,478.248,97.2815,1.0588,105.88,118.423
480.205,4313.658,5273.51,,480.205,4673.005,5237.81,,480.205,92.3102,1.00682,100.682,113.398
482.164,3900.047,4663.49,,482.164,4481.539,4889.84,,482.164,87.0247,0.95371,95.371,108.216
484.123,3596.342,4183.71,,484.123,4395.281,4648.59,,484.123,81.8228,0.899996,89.9996,102.925
486.083,3397.725,3822.9,,486.083,4432.828,4520.15,,486.083,76.6492,0.845747,84.5747,97.5842
488.045,3299.011,3572.47,,488.045,4610.368,4514.47,,488.045,71.5563,0.791339,79.1339,92.2352
490.007,3293.771,3425.02,,490.007,4925.802,4639.4,,490.007,66.8677,0.738247,73.8247,86.878
491.971,3349.61,3366.91,,491.971,5378.403,4897.99,,491.971,62.2789,0.687406,68.7406,81.5369
493.936,3451.541,3379.69,,493.936,5936.261,5285.32,,493.936,58.1433,0.639448,63.9448,76.2822
495.901,3598.498,3451.7,,495.901,6601.205,5789.11,,495.901,54.5127,0.59624,59.624,71.2038
497.868,3764.18,3569.79,,497.868,7369.365,6403.65,,497.868,51.0788,0.557461,55.7461,66.3979
499.836,3937.936,3716.7,,499.836,8224.39,7121.8,,499.836,47.8812,0.521877,52.1877,61.924
501.804,4076.159,3871.44,,501.804,9125.372,7925.1,,501.804,44.6684,0.488504,48.8504,57.7935
503.774,4170.958,4005.16,,503.774,10055.42,8786.79,,503.774,41.4797,0.455816,45.5816,53.9834
505.745,4206.728,4104.86,,505.745,11001.973,9692.89,,505.745,38.2361,0.423492,42.3492,50.429
507.717,4200.806,4156.2,,507.717,11935.339,10610.4,,507.717,35.1964,0.39171,39.171,47.0497
509.69,4192.188,4177.09,,509.69,12884.921,11544.4,,509.69,32.5356,0.361828,36.1828,43.7996
511.664,4170.667,4179.46,,511.664,13774.941,12472.2,,511.664,30.2772,0.335103,33.5103,40.6785
513.639,4126.107,4164.36,,513.639,14632.225,13374,,513.639,28.1988,0.311378,31.1378,37.7191
515.615,4053.049,4126.33,,515.615,15392.368,14228.9,,515.615,26.3315,0.289998,28.9998,34.9583
517.592,3958.08,4065.96,,517.592,16059.305,15008.3,,517.592,24.6466,0.270914,27.0914,32.4319
519.57,3826.393,3975.37,,519.57,16675.782,15717.7,,519.57,22.9458,0.252923,25.2923,30.1495
521.549,3686.28,3860.95,,521.549,17207.023,16358.4,,521.549,21.4231,0.236022,23.6022,28.0817
523.529,3541.585,3733.74,,523.529,17655.578,16920.3,,523.529,20.0593,0.220667,22.0667,26.1943
525.51,3386.003,3593.89,,525.51,18014.552,17401.4,,525.51,18.7959,0.206529,20.6529,24.4623
527.493,3243.796,3447.44,,527.493,18306.536,17801.1,,527.493,17.7193,0.193665,19.3665,22.8655
529.476,3127.758,3311.04,,529.476,18493.465,18119.2,,529.476,16.9128,0.182737,18.2737,21.4005
531.46,3045.053,3193.3,,531.46,18579.761,18340.9,,531.46,16.3891,0.174109,17.4109,20.0922
533.446,2981.777,3099.14,,533.446,18621.056,18478.8,,533.446,16.0129,0.167713,16.7713,18.9584
535.432,2961.422,3031.63,,535.432,18656.156,18564,,535.432,15.8737,0.163307,16.3307,18.0109
537.419,2968.229,2996.94,,537.419,18589.524,18595.8,,537.419,15.9672,0.161162,16.1162,17.2679
539.408,3008.981,2991.12,,539.408,18555.23,18585.3,,539.408,16.2163,0.16094,16.094,16.7394
541.397,3096.99,3022.36,,541.397,18474.988,18555.5,,541.397,16.7632,0.162883,16.2883,16.4239
543.388,3207.155,3088.56,,543.388,18355.046,18478.9,,543.388,17.4729,0.16714,16.714,16.3215
545.379,3346.175,3182.23,,545.379,18248.544,18389.5,,545.379,18.3367,0.173046,17.3046,16.4274
547.372,3517.194,3309.66,,547.372,18138.685,18289,,547.372,19.3906,0.180964,18.0964,16.7374
549.365,3688.472,3460.06,,549.365,18001.624,18180.9,,549.365,20.4897,0.190312,19.0312,17.242
551.36,3844.171,3619.88,,551.36,17827.735,18043.2,,551.36,21.5629,0.200623,20.0623,17.925
553.356,3965.83,3769.62,,553.356,17631.285,17879.9,,553.356,22.4931,0.21083,21.083,18.7464
555.352,4026.787,3892.74,,555.352,17438.845,17704,,555.352,23.0909,0.21988,21.988,19.6525
557.35,4022.09,3965.23,,557.35,17194.424,17508.3,,557.35,23.3918,0.226477,22.6477,20.569
559.349,3944.044,3980.52,,559.349,16964.953,17284.3,,559.349,23.2482,0.230297,23.0297,21.4109
561.348,3774.912,3922.05,,561.348,16724.541,17056.8,,561.348,22.5711,0.229941,22.9941,22.0843
563.349,3572.32,3792.98,,563.349,16486.156,16821.8,,563.349,21.6686,0.22548,22.548,22.4984
565.351,3320.898,3616.59,,565.351,16210.355,16578.2,,565.351,20.4863,0.218153,21.8153,22.6036
567.354,3009.48,3385.12,,567.354,15947.232,16321.1,,567.354,18.8715,0.207408,20.7408,22.3732
569.358,2692.886,3109.03,,569.358,15647.003,16051.9,,569.358,17.2102,0.193686,19.3686,21.7934
571.363,2372.82,2811.5,,571.363,15345.241,15765.6,,571.363,15.4629,0.178331,17.8331,20.8912
573.368,2060.293,2502.44,,573.368,15002.594,15459.4,,573.368,13.7329,0.161872,16.1872,19.7241
575.375,1781.73,2200.98,,575.375,14677.251,15137.4,,575.375,12.1394,0.145401,14.5401,18.3524
577.383,1518.06,1913.64,,577.383,14388.348,14825.5,,577.383,10.5506,0.129077,12.9077,16.8364
579.392,1290.776,1646.51,,579.392,14080.889,14521.4,,579.392,9.16686,0.113385,11.3385,15.2494
581.402,1089.943,1407.61,,581.402,13725.902,14199,,581.402,7.94078,0.0991347,9.91347,13.6586
583.413,927.562,1196.67,,583.413,13385.451,13863.4,,583.413,6.92963,0.0863185,8.63185,12.1182
585.425,798.47,1022.05,,585.425,13055.171,13529.6,,585.425,6.11612,0.0755413,7.55413,10.6752
587.439,685.526,875.769,,587.439,12719.47,13200.2,,587.439,5.38958,0.0663451,6.63451,9.3605
589.453,614.752,756.227,,589.453,12355.016,12856.6,,589.453,4.97573,0.0588202,5.88202,8.19831
591.468,574.101,670.44,,591.468,12020.007,12510.8,,591.468,4.77621,0.053589,5.3589,7.21047
593.484,545.499,611.781,,593.484,11629.292,12156.6,,593.484,4.69073,0.0503251,5.03251,6.40949
595.501,522.871,571.041,,595.501,11274.682,11787.3,,595.501,4.63757,0.0484454,4.84454,5.79272
597.519,509.426,541.747,,597.519,10930.996,11434.4,,597.519,4.66038,0.0473789,4.73789,5.34133
599.539,504.229,523.904,,599.539,10548.047,11075.8,,599.539,4.78031,0.0473017,4.73017,5.04499
601.559,491.575,510.816,,601.559,10176.811,10704.1,,601.559,4.83034,0.0477218,4.77218,4.8784
603.58,478.772,497.379,,603.58,9808.491,10337.4,,603.58,4.8812,0.0481144,4.81144,4.80138
605.602,472.465,487.618,,605.602,9418.219,9963.64,,605.602,5.0165,0.0489398,4.89398,4.78651
607.626,455.478,476.537,,607.626,9057.409,9587.64,,607.626,5.02879,0.0497032,4.97032,4.81635
609.65,454.494,465.849,,609.65,8698.072,9220.02,,609.65,5.22523,0.0505258,5.05258,4.87237
611.675,448.651,457.896,,611.675,8328.233,8854.71,,611.675,5.38711,0.0517121,5.17121,4.94591
613.702,431.758,448.183,,613.702,7979.385,8490.38,,613.702,5.41092,0.0527872,5.27872,5.03337
615.729,412.783,434.788,,615.729,7646.662,8140.66,,615.729,5.39821,0.0534094,5.34094,5.125
617.757,403.055,422.083,,617.757,7328.948,7802.55,,617.757,5.49949,0.0540955,5.40955,5.2116
619.787,389.204,409.619,,619.787,7025.484,7482.23,,619.787,5.53989,0.0547456,5.47456,5.29863
621.817,376.811,395.11,,621.817,6663.205,7153.51,,621.817,5.6551,0.055233,5.5233,5.37515
623.849,360.637,380.945,,623.849,6369.927,6819.25,,623.849,5.66156,0.0558632,5.58632,5.44132
625.881,330.116,362.638,,625.881,6094.137,6517.8,,625.881,5.41694,0.055638,5.5638,5.49206
627.915,306.768,339.159,,627.915,5795.847,6222.34,,627.915,5.29289,0.0545067,5.45067,5.5148
629.949,289.483,318.276,,629.949,5497.842,5923.01,,629.949,5.26539,0.0537356,5.37356,5.5058
631.985,263.103,296.99,,631.985,5232.336,5631.12,,631.985,5.0284,0.0527409,5.27409,5.47101
634.021,242.639,273.977,,634.021,4994.07,5361.63,,634.021,4.85854,0.0510996,5.10996,5.39577
636.059,234.181,255.194,,636.059,4766.117,5113.6,,636.059,4.91345,0.0499049,4.99049,5.28815
638.098,225.051,241.619,,638.098,4517.577,4868.13,,638.098,4.98167,0.0496328,4.96328,5.18385
640.137,216.719,231.221,,640.137,4288.097,4626.12,,640.137,5.05397,0.0499816,4.99816,5.10317
642.178,210.207,222.993,,642.178,4068.039,4392.94,,642.178,5.16728,0.0507618,5.07618,5.04944
644.219,200.809,214.088,,644.219,3855.442,4169.94,,644.219,5.20846,0.0513408,5.13408,5.03298
646.262,198.062,206.495,,646.262,3658.495,3957.4,,646.262,5.41376,0.0521795,5.21795,5.05876
648.306,193.497,200.449,,648.306,3464.138,3752.83,,648.306,5.58572,0.0534128,5.34128,5.12103
650.35,191.731,196.617,,650.35,3273.988,3551.52,,650.35,5.85619,0.0553613,5.53613,5.21517
652.396,191.248,193.87,,652.396,3100.836,3361.83,,652.396,6.16763,0.0576681,5.76681,5.34133
654.443,186.381,191.272,,654.443,2921.358,3180.81,,654.443,6.37994,0.0601331,6.01331,5.50161
656.49,188.736,188.804,,656.49,2753.059,3000.92,,656.49,6.8555,0.0629154,6.29154,5.69888
658.539,190.421,190.927,,658.539,2599.362,2830.31,,658.539,7.32568,0.0674579,6.74579,5.95217
660.589,188.587,190.928,,660.589,2455.779,2672.75,,660.589,7.67931,0.0714353,7.14353,6.2566
662.64,194.112,191.01,,662.64,2312.357,2524.22,,662.64,8.39455,0.0756711,7.56711,6.59666
664.691,203.011,194.801,,664.691,2173.615,2378.41,,664.691,9.33979,0.0819041,8.19041,6.99867
666.744,201.151,198.475,,666.744,2040.62,2237,,666.744,9.85735,0.0887236,8.87236,7.48425
668.798,205.818,200.683,,668.798,1920.246,2104.74,,668.798,10.7183,0.0953482,9.53482,8.0254
670.853,218.861,207.585,,670.853,1803.858,1979.23,,670.853,12.1329,0.104882,10.4882,8.64473
672.909,219.599,214.552,,672.909,1709.54,1863.79,,672.909,12.8455,0.115116,11.5116,9.38638
674.965,231.251,220.498,,674.965,1606.44,1757.95,,674.965,14.3952,0.125429,12.5429,10.2196
677.023,243.835,230.018,,677.023,1511.369,1653.16,,677.023,16.1334,0.139138,13.9138,11.1662
679.082,257.68,240.937,,679.082,1424.436,1557.02,,679.082,18.09,0.154742,15.4742,12.2755
681.142,271.386,253.812,,681.142,1322.742,1461.36,,681.142,20.5169,0.173682,17.3682,13.578
683.203,283.124,266.555,,683.203,1254.116,1371.04,,683.203,22.5756,0.194418,19.4418,15.0739
685.265,295.198,278.207,,685.265,1179.629,1292.23,,685.265,25.0246,0.215291,21.5291,16.7753
687.327,303.537,289.704,,687.327,1104.938,1213.33,,687.327,27.471,0.238768,23.8768,18.6849
689.391,323.727,302.143,,689.391,1043.367,1141.15,,689.391,31.0271,0.264771,26.4771,20.7918
691.456,331.709,315.757,,691.456,979.101,1073.44,,691.456,33.8789,0.294154,29.4154,23.1257
693.522,342.885,327.048,,693.522,920.032,1009.65,,693.522,37.2688,0.323921,32.3921,25.6368
695.589,343.542,335.656,,695.589,866.953,948.17,,695.589,39.6264,0.354004,35.4004,28.3297
697.657,345.349,340.298,,697.657,814.832,891.84,,697.657,42.3828,0.381568,38.1568,31.1331
699.726,347.082,343.561,,699.726,764.473,838.303,,699.726,45.4015,0.409828,40.9828,34.0143
701.796,336.946,343.806,,701.796,726.592,789.986,,701.796,46.3735,0.435206,43.5206,36.8739
703.867,327.444,338.099,,703.867,677.987,744.417,,703.867,48.2965,0.45418,45.418,39.5608
705.939,318.712,331.531,,705.939,647.077,701.379,,705.939,49.2541,0.472685,47.2685,42.0295
708.012,310.75,322.4,,708.012,604.308,662.696,,708.012,51.4225,0.486497,48.6497,44.2377
710.085,309.751,316.907,,710.085,570.329,623.725,,710.085,54.3109,0.508088,50.8088,46.2793
712.16,296.375,309.753,,712.16,539.844,588.761,,712.16,54.9001,0.52611,52.611,48.1711
714.236,286.732,299.869,,714.236,511.659,556.524,,714.236,56.0397,0.538825,53.8825,49.9094
716.313,274.291,288.993,,716.313,478.551,526.21,,716.313,57.317,0.549197,54.9197,51.5004
718.391,264.134,278.045,,718.391,452.734,495.41,,718.391,58.342,0.561242,56.1242,53.0099
720.47,248.438,266.596,,720.47,418.83,464.811,,720.47,59.3171,0.573557,57.3557,54.4277
722.55,235.773,253.432,,722.55,391.589,433.196,,722.55,60.2093,0.585029,58.5029,55.6688
724.631,226.153,241.26,,724.631,374.361,406.446,,724.631,60.4104,0.593584,59.3584,56.7966
726.713,217.98,231.608,,726.713,354.602,384.824,,726.713,61.4717,0.601854,60.1854,57.8587
728.796,208.615,222.706,,728.796,341.466,365.659,,728.796,61.0939,0.609053,60.9053,58.8486
730.88,199.528,213.795,,730.88,327.674,349.482,,730.88,60.8922,0.61175,61.175,59.6867
732.965,188.755,203.767,,732.965,310.396,333.134,,732.965,60.811,0.611666,61.1666,60.299
735.051,180.3,194.138,,735.051,297.457,317.468,,735.051,60.6138,0.611518,61.1518,60.7315
737.138,171.239,184.895,,737.138,281.755,303.655,,737.138,60.7759,0.608899,60.8899,60.9656
739.226,167.703,177.456,,739.226,272.333,289.817,,739.226,61.5801,0.612302,61.2302,61.0798
741.315,168.742,172.78,,741.315,265.377,279.963,,741.315,63.5858,0.617153,61.7153,61.1786
743.405,160.775,169.415,,743.405,255.419,269.041,,743.405,62.9456,0.629702,62.9702,61.4625
745.496,160.83,164.886,,745.496,249.917,259.515,,745.496,64.3534,0.635364,63.5364,61.8804
747.588,156.477,161.863,,747.588,236.862,251.014,,747.588,66.0625,0.644835,64.4835,62.4907
749.681,148.895,156.092,,749.681,227.883,241.189,,749.681,65.3384,0.647177,64.7177,63.199
751.775,144.59,151.408,,751.775,220.625,232.002,,751.775,65.5365,0.652616,65.2616,63.9045
753.87,138.608,147.252,,753.87,216.843,224.531,,753.87,63.9209,0.655819,65.5819,64.5227
755.966,138.204,143.596,,755.966,208.966,217.996,,755.966,66.1371,0.658708,65.8708,64.9774
758.063,138.479,141.451,,758.063,195.128,209.832,,758.063,70.9683,0.674116,67.4116,65.5185
760.161,142.926,141.029,,760.161,183.156,199.423,,760.161,78.0351,0.707187,70.7187,66.4348
762.26,141.069,141.737,,762.26,171.56,187.901,,762.26,82.2272,0.75432,75.432,68.1574
764.36,143.608,141.348,,764.36,174.316,179.93,,764.36,82.3837,0.78557,78.557,70.4696
766.461,145.216,142.379,,766.461,174.35,176.433,,766.461,83.2899,0.806989,80.6989,73.2402
768.562,141.085,141.777,,768.562,175.116,175.376,,768.562,80.5666,0.808415,80.8415,76.024
770.665,136.298,139.33,,770.665,174.177,175.286,,770.665,78.2526,0.794874,79.4874,78.1675
772.769,136.085,136.929,,772.769,166.977,172.477,,772.769,81.4992,0.793895,79.3895,79.3993
774.874,137.447,136.636,,774.874,158.966,167.045,,774.874,86.4631,0.817963,81.7963,80.1687
776.98,130.046,134.7,,776.98,155.872,161.839,,776.98,83.4313,0.832308,83.2308,80.8236
779.087,122.211,129.476,,779.087,156.805,158.42,,779.087,77.9382,0.817296,81.7296,81.0791
781.195,123.859,126.165,,781.195,156.194,157.349,,781.195,79.2982,0.801817,80.1817,81.1157
783.304,120.23,124.17,,783.304,147.827,153.492,,783.304,81.3316,0.808968,80.8968,81.3813
785.414,119.379,122.061,,785.414,144.526,149.549,,785.414,82.6004,0.816192,81.6192,81.597
787.525,111.023,118.812,,787.525,139.035,145.191,,787.525,79.8526,0.818312,81.8312,81.4622
789.637,106.243,113.17,,789.637,139.446,141.858,,789.637,76.1893,0.79777,79.777,81.0117
791.749,112.08,112.168,,791.749,141.085,142.088,,791.749,79.4415,0.789427,78.9427,80.6546
793.863,106.149,111.767,,793.863,132.96,139.848,,793.863,79.8353,0.799203,79.9203,80.5008
795.978,100.783,107.13,,795.978,133.657,136.672,,795.978,75.4042,0.783847,78.3847,80.091
798.094,105.584,105.026,,798.094,128.597,134.167,,798.094,82.1046,0.782804,78.2804,79.35
800.211,102.371,104.935,,800.211,125.54,130.027,,800.211,81.5445,0.807027,80.7027,79.1343
802.329,96.818,101.841,,802.329,125.322,126.527,,802.329,77.2554,0.804893,80.4893,79.4143
804.448,96.397,99.6206,,804.448,126.564,125.502,,804.448,76.1646,0.793777,79.3777,79.4537
806.567,95.043,97.7449,,806.567,127.1,126.252,,806.567,74.7781,0.774205,77.4205,79.1615
808.688,103.704,98.2883,,808.688,125.336,125.674,,808.688,82.7408,0.782088,78.2088,79.0512
810.81,103.734,101.625,,810.81,128.377,125.906,,810.81,80.8042,0.807144,80.7144,79.1963
812.933,109.21,103.41,,812.933,128.684,127.414,,812.933,84.8668,0.811609,81.1609,79.2269
815.057,117.147,108.265,,815.057,131.63,128.308,,815.057,88.9972,0.843792,84.3792,79.9089
817.181,119.512,113.906,,817.181,134.057,130.993,,817.181,89.1501,0.869562,86.9562,81.4275
819.307,117.696,116.302,,819.307,134.203,132.623,,819.307,87.7,0.876943,87.6943,83.4556
821.434,131.839,120.041,,821.434,138.133,134.892,,821.434,95.4435,0.889911,88.9911,85.1536
823.562,147.347,130.541,,823.562,145.596,138.069,,823.562,101.203,0.945473,94.5473,87.444
825.69,155.536,141.341,,825.69,157.121,145.507,,825.69,98.9912,0.971368,97.1368,90.1319
827.82,173.791,153.764,,827.82,168.83,154.695,,827.82,102.938,0.993977,99.3977,92.5556
829.951,192.737,170.395,,829.951,187.22,166.443,,829.951,102.947,1.02374,102.374,95.1832
832.082,206.12,185.723,,832.082,198.489,179.92,,832.082,103.845,1.03226,103.226,98.0201
834.215,216.127,199.205,,834.215,201.865,189.843,,834.215,107.065,1.04931,104.931,100.485
836.349,226.039,210.914,,836.349,207.147,196.953,,836.349,109.12,1.07088,107.088,102.453
838.483,248.549,224.159,,838.483,222.062,205.189,,838.483,111.928,1.09245,109.245,104.478
840.619,307.866,249.688,,840.619,263.204,223.758,,840.619,116.969,1.11589,111.589,106.403
842.755,393.777,301.412,,842.755,318.202,257.623,,842.755,123.751,1.16997,116.997,108.794
844.893,479.66,372.41,,844.893,387.235,307.147,,844.893,123.868,1.21248,121.248,111.926
847.032,570.235,451.194,,847.032,466.216,368.742,,847.032,122.311,1.2236,122.36,115.011
849.171,682.596,541.529,,849.171,539.76,438.841,,849.171,126.463,1.234,123.4,117.839
851.312,792.052,643.434,,851.312,610.079,508.559,,851.312,129.828,1.26521,126.521,120.767
853.453,883.603,745.006,,853.453,689.743,581.82,,853.453,128.106,1.28048,128.048,123.428
855.596,968.888,839.108,,855.596,759.16,656.437,,855.596,127.626,1.27828,127.828,125.085
857.739,1045.41,926.676,,857.739,812.332,725.108,,857.739,128.692,1.27798,127.798,126.196
859.884,1105.484,1005.22,,859.884,862.41,785.218,,859.884,128.185,1.28018,128.018,127.22
862.029,1144.712,1068.67,,862.029,898.871,836.763,,862.029,127.35,1.27714,127.714,127.812
864.175,1182.494,1117.55,,864.175,922.193,874.941,,864.175,128.226,1.27729,127.729,127.854
866.323,1212.5,1157.76,,866.323,948.126,906.049,,866.323,127.884,1.27781,127.781,127.811
868.471,1256.911,1196.31,,868.471,980.672,936.191,,868.471,128.168,1.27785,127.785,127.821
870.621,1310.151,1241.86,,870.621,1024.768,969.541,,870.621,127.849,1.28088,128.088,127.831
872.771,1379.815,1295.04,,872.771,1083.951,1012.27,,872.771,127.295,1.27935,127.935,127.84
874.922,1464.714,1360.15,,874.922,1160.046,1067.67,,874.922,126.263,1.27394,127.394,127.822
877.075,1563.518,1437.88,,877.075,1245.479,1136.88,,877.075,125.535,1.26477,126.477,127.632
879.228,1673.225,1529.23,,879.228,1335.583,1215.24,,879.228,125.28,1.25838,125.838,127.296
881.382,1781.824,1631.75,,881.382,1432.739,1301.79,,881.382,124.365,1.25346,125.346,126.841
883.537,1875.307,1734.75,,883.537,1518.439,1391.7,,883.537,123.502,1.24649,124.649,126.239
885.694,1955.989,1831.02,,885.694,1584.213,1475.52,,885.694,123.468,1.24094,124.094,125.575
887.851,2012.467,1912.21,,887.851,1636.196,1547.2,,887.851,122.997,1.23592,123.592,124.953
890.009,2051.685,1975.47,,890.009,1657.704,1600.32,,890.009,123.767,1.23442,123.442,124.432
892.168,2034.446,2013.82,,892.168,1657.649,1631.54,,892.168,122.731,1.23431,123.431,124.014
894.328,1975.319,2010.57,,894.328,1620.526,1638.07,,894.328,121.894,1.22741,122.741,123.616
896.489,1882.161,1970.31,,896.489,1547.895,1611.23,,896.489,121.595,1.22286,122.286,123.243
898.651,1760.996,1893.32,,898.651,1475.081,1559.2,,898.651,119.383,1.21429,121.429,122.836
900.815,1628.097,1789.82,,900.815,1377.637,1491.2,,900.815,118.18,1.20025,120.025,122.262
902.979,1501.861,1672.71,,902.979,1265.567,1401.21,,902.979,118.671,1.19376,119.376,121.508
905.144,1366.917,1548.84,,905.144,1169.907,1305.49,,905.144,116.84,1.1864,118.64,120.706
907.31,1246.64,1422.26,,907.31,1070.254,1208.49,,907.31,116.481,1.1769,117.69,119.84
909.477,1126.43,1299.6,,909.477,984.826,1114.05,,909.477,114.379,1.16656,116.656,118.894
911.644,1019.782,1181.6,,911.644,905.197,1026.83,,911.644,112.659,1.15073,115.073,117.889
913.813,925.036,1071.96,,913.813,826.463,943.294,,913.813,111.927,1.1364,113.64,116.815
915.983,841.937,973.756,,915.983,763.633,866.24,,915.983,110.254,1.12412,112.412,115.61
918.154,768.201,885.204,,918.154,707.802,798.941,,918.154,108.533,1.10797,110.797,114.299
920.326,708.193,809.461,,920.326,658.335,738.542,,920.326,107.573,1.09603,109.603,112.908
922.499,640.184,738.419,,922.499,619.14,687.557,,922.499,103.399,1.07398,107.398,111.425
924.673,595.812,676.043,,924.673,572.491,640.618,,924.673,104.074,1.0553,105.53,109.826
926.847,540.258,620.307,,926.847,533.023,594.896,,926.847,101.357,1.04272,104.272,108.226
929.023,491.158,565.3,,929.023,495.646,552.506,,929.023,99.0945,1.02316,102.316,106.551
931.2,447.331,514.844,,931.2,450.36,511.466,,931.2,99.3274,1.0066,100.66,104.803
933.377,402.321,468.07,,933.377,421.073,471.837,,933.377,95.5466,0.992017,99.2017,103.091
935.556,364.767,422.3,,935.556,393.514,438.85,,935.556,92.6948,0.962288,96.2288,101.323
937.736,337.484,384.738,,937.736,366.863,407.672,,937.736,91.9918,0.943743,94.3743,99.3865
939.916,308.202,352.281,,939.916,336.849,378.683,,939.916,91.4956,0.930279,93.0279,97.4705
942.098,287.101,323.574,,942.098,315.743,351.501,,942.098,90.9287,0.920549,92.0549,95.7322
944.28,257.637,296.268,,944.28,297.273,329.091,,944.28,86.6668,0.900261,90.0261,93.9352
946.464,241.809,271.602,,946.464,286.44,309.688,,946.464,84.4187,0.877018,87.7018,92.1205
948.648,225.253,251.083,,948.648,274.516,295.151,,948.648,82.0546,0.850693,85.0693,90.3291
950.834,207.515,233.249,,950.834,256.955,280.031,,950.834,80.7593,0.832941,83.2941,88.4508
953.02,189.595,214.319,,953.02,245.484,264.651,,953.02,77.2331,0.809818,80.9818,86.3958
955.207,190.494,200.858,,955.207,237.922,252.672,,955.207,80.0657,0.794936,79.4936,84.2099
957.396,179.119,192.816,,957.396,231.088,242.928,,957.396,77.5112,0.79372,79.372,82.3924
959.585,170.835,182.86,,959.585,230.708,237.317,,959.585,74.0481,0.77053,77.053,80.7318
961.775,160.824,175.345,,961.775,226.509,233.313,,961.775,71.0012,0.751544,75.1544,79.1013
963.966,147.358,163.914,,963.966,221.946,228.965,,963.966,66.3936,0.715894,71.5894,77.2702
966.159,146.165,155.281,,966.159,215.292,223.899,,966.159,67.8915,0.693533,69.3533,75.3059
968.352,140.516,149.869,,968.352,215.365,219.144,,968.352,65.2455,0.683881,68.3881,73.2624
970.546,138.322,143.648,,970.546,215.711,216.856,,970.546,64.1238,0.66241,66.241,71.0334
972.741,138.947,140.692,,972.741,212.511,215.025,,972.741,65.3834,0.654305,65.4305,69.001
974.937,137.752,139.231,,974.937,210.31,212.698,,974.937,65.4995,0.654595,65.4595,67.4137
977.134,137.285,137.376,,977.134,212.746,211.681,,977.134,64.53,0.648976,64.8976,66.4235
979.332,138.181,137.193,,979.332,213.999,212.673,,979.332,64.5709,0.645089,64.5089,65.5835
981.531,132.986,135.934,,981.531,226.343,215.416,,981.531,58.7542,0.63103,63.103,64.9044
983.731,132.791,133.749,,983.731,234.142,224.264,,983.731,56.7139,0.596393,59.6393,63.9632
985.932,127.778,131.897,,985.932,233.939,229.218,,985.932,54.6202,0.575421,57.5421,62.6065
988.134,132.219,130.838,,988.134,243.737,234.062,,988.134,54.2466,0.558986,55.8986,60.915
990.336,135.296,133.27,,990.336,255.716,241.973,,990.336,52.9087,0.550764,55.0764,59.1527
992.54,129.1,132.907,,992.54,261.968,250.41,,992.54,49.2808,0.530758,53.0758,57.1564
994.745,131.721,131.629,,994.745,267.673,257.952,,994.745,49.2097,0.510283,51.0283,55.2439
996.951,134.161,133.27,,996.951,275.56,265.407,,996.951,48.6867,0.502135,50.2135,53.6466
999.157,135.146,135.194,,999.157,287.447,272.94,,999.157,47.016,0.495326,49.5326,52.312
1001.365,138.404,136.341,,1001.365,296.424,282.111,,1001.365,46.6912,0.48329,48.329,50.9867
1003.573,140.479,137.517,,1003.573,306.674,291.529,,1003.573,45.8073,0.47171,47.171,49.7011
1005.783,140.918,139.015,,1005.783,321.741,302.439,,1005.783,43.7986,0.459646,45.9646,48.6124
1007.993,138.811,139.049,,1007.993,339.626,317.384,,1007.993,40.8717,0.43811,43.811,47.4724
1010.205,143.431,139.236,,1010.205,357.42,333.92,,1010.205,40.1295,0.416975,41.6975,46.0243
1012.417,146.415,142.405,,1012.417,379.486,351.275,,1012.417,38.5825,0.405395,40.5395,44.5147
1014.631,145.307,143.174,,1014.631,405.551,372.643,,1014.631,35.8295,0.384212,38.4212,42.8806
1016.845,159.381,148.604,,1016.845,432.98,396.621,,1016.845,36.8102,0.374675,37.4675,41.1644
1019.06,156.727,153.989,,1019.06,471.045,424.948,,1019.06,33.2722,0.362371,36.2371,39.5688
1021.277,166.618,157.143,,1021.277,501.291,456.584,,1021.277,33.2378,0.34417,34.417,38.0587
1023.494,172.327,164.074,,1023.494,523.264,484.683,,1023.494,32.9331,0.338519,33.8519,36.6859
1025.712,169.036,167.523,,1025.712,550.418,510.572,,1025.712,30.7105,0.328108,32.8108,35.4441
1027.931,166.018,167.967,,1027.931,568.39,536.22,,1027.931,29.2085,0.313243,31.3243,34.2873
1030.151,161.817,166.59,,1030.151,579.543,554.781,,1030.151,27.9215,0.300281,30.0281,33.0144
1032.372,161.797,163.541,,1032.372,592.787,571.044,,1032.372,27.2943,0.286389,28.6389,31.8183
1034.594,160.596,162.77,,1034.594,595.121,583.612,,1034.594,26.9854,0.278901,27.8901,30.6703
1036.817,155.757,161.243,,1036.817,599.091,590.118,,1036.817,25.9989,0.273239,27.3239,29.535
1039.041,154.646,159.165,,1039.041,600.696,595.849,,1039.041,25.7445,0.267124,26.7124,28.5246
1041.266,150.625,156.195,,1041.266,615.211,602.775,,1041.266,24.4835,0.259127,25.9127,27.6503
1043.492,147.24,152.595,,1043.492,618.997,611.694,,1043.492,23.7869,0.249462,24.9462,26.8518
1045.718,145.401,149.558,,1045.718,613.056,613.932,,1045.718,23.7174,0.243606,24.3606,26.1306
1047.946,138.47,146.085,,1047.946,622.659,616.056,,1047.946,22.2385,0.237129,23.7129,25.4233
1050.175,132.629,140.411,,1050.175,619.807,619.39,,1050.175,21.3984,0.226692,22.6692,24.6542
1052.405,134.334,136.876,,1052.405,617.318,618.355,,1052.405,21.7609,0.221354,22.1354,23.868
1054.635,136.492,136.136,,1054.635,616.465,617.427,,1054.635,22.1411,0.22049,22.049,23.2184
1056.867,131.469,135.149,,1056.867,614.339,616.338,,1056.867,21.4001,0.219277,21.9277,22.7182
1059.099,123.172,130.905,,1059.099,611.576,614.856,,1059.099,20.1401,0.212904,21.2904,22.2248
1061.333,121.875,126.334,,1061.333,602.448,611.407,,1061.333,20.23,0.206629,20.6629,21.7654
1063.567,121.304,124.596,,1063.567,594.774,604.965,,1063.567,20.395,0.205955,20.5955,21.4266
1065.802,115.642,122.005,,1065.802,591.191,598.552,,1065.802,19.5609,0.203834,20.3834,21.1284
1068.039,116.707,119.357,,1068.039,584.425,593.979,,1068.039,19.9695,0.200945,20.0945,20.7661
1070.276,119.499,118.304,,1070.276,578.385,587.974,,1070.276,20.6608,0.201206,20.1206,20.4541
1072.514,119.654,118.9,,1072.514,568.981,580.469,,1072.514,21.0295,0.204834,20.4834,20.3335
1074.753,114.172,117.278,,1074.753,569.85,575.284,,1074.753,20.0354,0.203862,20.3862,20.3112
1076.993,113.145,116.03,,1076.993,557.626,569.992,,1076.993,20.2905,0.203565,20.3565,20.2731
1079.234,116.753,115.709,,1079.234,555.402,562.556,,1079.234,21.0214,0.205684,20.5684,20.3231
1081.476,119.087,117.453,,1081.476,553.268,558.451,,1081.476,21.5243,0.210319,21.0319,20.4789
1083.719,119.785,118.219,,1083.719,545.496,554.823,,1083.719,21.9589,0.213075,21.3075,20.664
1085.963,121.574,119.434,,1085.963,533.633,546.855,,1085.963,22.7823,0.218401,21.8401,20.882
1088.208,124.998,121.487,,1088.208,527.133,538.509,,1088.208,23.7128,0.225599,22.5599,21.2606
1090.454,120.058,121.52,,1090.454,525.905,532.379,,1090.454,22.8288,0.228259,22.8259,21.7157
1092.772,120.753,120.629,,1092.772,518.494,526.253,,1092.772,23.2892,0.229223,22.9223,22.1207
1094.985,119.448,120.604,,1094.985,516.445,519.848,,1094.985,23.1289,0.231999,23.1999,22.5024
1097.197,121.688,120.407,,1097.197,516.578,518.054,,1097.197,23.5566,0.232422,23.2422,22.8298
1099.409,123.837,121.696,,1099.409,504.074,513.399,,1099.409,24.5672,0.237039,23.7039,23.0976
1101.622,131.167,125.377,,1101.622,501.659,507.463,,1101.622,26.1466,0.247067,24.7067,23.4036
1103.834,128.314,127.816,,1103.834,488.698,501.131,,1103.834,26.2563,0.255054,25.5054,23.8747
1106.047,130.552,127.798,,1106.047,483.282,493.714,,1106.047,27.0136,0.258849,25.8849,24.3807
1108.259,134.698,130.963,,1108.259,474.683,486.317,,1108.259,28.3764,0.269295,26.9295,25.021
1110.472,132.025,133.689,,1110.472,471.264,479.163,,1110.472,28.0151,0.279004,27.9004,25.825
1112.684,128.988,133.357,,1112.684,471.027,474.964,,1112.684,27.3844,0.280772,28.0772,26.5759
1114.897,124.495,130.7,,1114.897,459.152,469.441,,1114.897,27.1141,0.278417,27.8417,27.1016
1117.109,122.093,126.416,,1117.109,452.004,461.556,,1117.109,27.0115,0.273891,27.3891,27.4509
1119.321,122.873,124.575,,1119.321,444.854,455.114,,1119.321,27.621,0.273723,27.3723,27.6502
1121.534,131.56,126.169,,1121.534,436.522,447.135,,1121.534,30.1382,0.282173,28.2173,27.7416
1123.746,124.611,127.877,,1123.746,433.189,440.343,,1123.746,28.766,0.290404,29.0404,27.9009
1125.959,122.66,124.281,,1125.959,422.491,435.03,,1125.959,29.0326,0.285683,28.5683,28.0388
1128.171,121.346,122.622,,1128.171,409.246,425.119,,1128.171,29.6511,0.288441,28.8441,28.2452
1130.384,119.485,120.955,,1130.384,401.001,414.743,,1130.384,29.7967,0.291639,29.1639,28.5752
1132.596,114.806,118.426,,1132.596,390.936,405.394,,1132.596,29.367,0.292127,29.2127,28.8795
1134.809,113.035,116.149,,1134.809,382.688,396.804,,1134.809,29.5371,0.292712,29.2712,28.9986
1137.021,104.899,112.577,,1137.021,371.531,387.432,,1137.021,28.2343,0.290574,29.0574,29.0647
1139.233,98.854,106.368,,1139.233,365.917,378.168,,1139.233,27.0154,0.281271,28.1271,29.0277
1141.446,94.99,101.849,,1141.446,355.303,369.536,,1141.446,26.7349,0.275614,27.5614,28.7774
1143.658,95.034,99.4194,,1143.658,344.505,357.825,,1143.658,27.5857,0.277844,27.7844,28.4915
1145.871,90.532,95.6867,,1145.871,340.343,349.602,,1145.871,26.6002,0.273702,27.3702,28.1647
1148.083,91.847,93.891,,1148.083,326.18,342.185,,1148.083,28.1584,0.274386,27.4386,27.8075
1150.296,84.89,90.8697,,1150.296,320.471,332.139,,1150.296,26.4891,0.27359,27.359,27.5734
1152.508,82.749,87.6959,,1152.508,310.396,323.888,,1152.508,26.6592,0.27076,27.076,27.4342
1154.721,79.335,84.3818,,1154.721,296.048,311.866,,1154.721,26.798,0.27057,27.057,27.3276
1156.933,73.193,79.4404,,1156.933,294.972,303.517,,1156.933,24.8135,0.261733,26.1733,27.1128
1159.145,70.869,74.6513,,1159.145,290.894,299.059,,1159.145,24.3625,0.249621,24.9621,26.7328
1161.358,72.908,73.081,,1161.358,277.725,291.297,,1161.358,26.2519,0.250881,25.0881,26.2562
1163.57,67.946,71.5054,,1163.57,272.555,282.078,,1163.57,24.9293,0.253495,25.3495,25.9099
1165.783,70.347,70.1729,,1165.783,262.111,273.739,,1165.783,26.8386,0.25635,25.635,25.6041
1167.995,69.838,71.0381,,1167.995,255.484,264.346,,1167.995,27.3356,0.268731,26.8731,25.5508
1170.208,65.419,70.3456,,1170.208,251.947,258.469,,1170.208,25.9654,0.272162,27.2162,25.8317
1172.42,60.273,66.4187,,1172.42,239.228,251.874,,1172.42,25.1948,0.263698,26.3698,26.1428
1174.633,59.581,62.8874,,1174.633,233.962,243.314,,1174.633,25.4661,0.258462,25.8462,26.2638
1176.845,58.979,61.0646,,1176.845,233.696,237.788,,1176.845,25.2375,0.256803,25.6803,26.34
1179.057,68.285,62.6181,,1179.057,227.519,234.273,,1179.057,30.0129,0.267287,26.7287,26.3661
1181.27,63.501,64.8409,,1181.27,221.706,229.789,,1181.27,28.642,0.282176,28.2176,26.5245
1183.482,71.261,65.3701,,1183.482,213.346,223.527,,1183.482,33.4016,0.292448,29.2448,26.9068
1185.695,66.93,67.1945,,1185.695,208.713,217.508,,1185.695,32.068,0.308929,30.8929,27.7581
1187.907,69.144,67.0074,,1187.907,205.989,212.148,,1187.907,33.5668,0.315852,31.5852,28.8192
1190.12,66.812,68.148,,1190.12,204.264,209.467,,1190.12,32.7087,0.32534,32.534,30.0339
1192.332,67.662,67.3149,,1192.332,196.265,204.049,,1192.332,34.4748,0.329895,32.9895,31.0475
1194.545,80.966,70.8027,,1194.545,189.358,197.741,,1194.545,42.7582,0.358059,35.8059,32.2258
1196.757,87.997,77.9701,,1196.757,193.177,193.961,,1196.757,45.5525,0.401989,40.1989,33.8983
1198.969,94.21,83.4126,,1198.969,190.906,193.006,,1198.969,49.3489,0.432175,43.2175,35.9926
1201.182,101.513,90.1273,,1201.182,186.088,190.567,,1201.182,54.5511,0.472942,47.2942,38.6409
1203.394,105.363,96.162,,1203.394,191.18,189.25,,1203.394,55.1119,0.508122,50.8122,41.9028
1205.607,117.212,103.796,,1205.607,190.818,190.793,,1205.607,61.4261,0.544024,54.4024,45.5853
1207.819,124.97,113.404,,1207.819,187.182,190.204,,1207.819,66.7639,0.596223,59.6223,49.4362
1210.032,127.456,121.49,,1210.032,177.456,185.966,,1210.032,71.824,0.653289,65.3289,53.6508
1212.244,123.215,124.468,,1212.244,174.367,180.512,,1212.244,70.6642,0.68953,68.953,58.034
1214.456,111.156,120.936,,1214.456,171.188,177.486,,1214.456,64.9321,0.681382,68.1382,61.7554
1216.669,99.824,113.245,,1216.669,160.555,172.299,,1216.669,62.1743,0.657255,65.7255,64.4301
1218.881,87.403,103.811,,1218.881,145.922,163.047,,1218.881,59.8971,0.63669,63.669,65.8663
1221.094,79.436,93.4393,,1221.094,131.745,151.738,,1221.094,60.2953,0.615793,61.5793,65.884
1223.306,67.288,82.1322,,1223.306,122.66,140.321,,1223.306,54.8573,0.585315,58.5315,64.4775
1225.519,58.232,72.2154,,1225.519,114.121,128.737,,1225.519,51.0265,0.560953,56.0953,62.1783
1227.731,47.177,62.6679,,1227.731,109.584,119.879,,1227.731,43.051,0.52276,52.276,59.6107
1229.944,39.214,52.6923,,1229.944,106.866,114.308,,1229.944,36.6946,0.460967,46.0967,56.4202
1232.156,30.252,42.5131,,1232.156,99.241,108.599,,1232.156,30.4834,0.39147,39.147,52.3474
1234.368,32.382,36.4159,,1234.368,90.436,101.027,,1234.368,35.8065,0.360458,36.0458,47.8279
1236.581,28.24,33.6204,,1236.581,87.178,95.8468,,1236.581,32.3935,0.350772,35.0772,43.6762
1238.793,29.827,29.8189,,1238.793,79.468,89.054,,1238.793,37.5333,0.334841,33.4841,39.7455
1241.006,24.961,27.2161,,1241.006,75.305,83.0192,,1241.006,33.1465,0.327829,32.7829,36.6467
1242.586,19.656,24.7858,,1242.586,69.901,79.3938,,1242.586,28.1198,0.312188,31.2188,