File: public_html/data/backup/schreiberglass-Orange_gelb_7860.csv
wavelength_nm,intensity,intensity_smoothed,,wavelength_nm2,intensity_i0,intensity_i0_smoothed,,wavelength_nm3,,transmission,transmission_perc,transmission_perc_smoothed
173.232,15.925,#N/A,,173.232,19.372,#N/A,,173.232,82.2063,#N/A,#N/A,#N/A
175.084,13.939,16.1319,,175.084,33.69,22.9547,,175.084,41.3743,0.702772,70.2772,#N/A
176.935,18.211,16.6529,,176.935,35.507,28.7339,,176.935,51.2885,0.579554,57.9554,#N/A
178.787,17.665,18.6813,,178.787,32.052,29.5431,,178.787,55.1136,0.632343,63.2343,#N/A
180.639,14.3,17.1857,,180.639,39.87,32.1451,,180.639,35.8666,0.534628,53.4628,#N/A
182.491,17.481,15.9966,,182.491,38.233,36.3785,,182.491,45.7223,0.439726,43.9726,#N/A
184.342,25.844,19.0268,,184.342,31.233,35.1993,,184.342,82.7458,0.540545,54.0545,55.3668
186.194,19.207,22.0456,,186.194,35.141,34.1309,,186.194,54.657,0.645911,64.5911,55.4676
188.046,15.297,19.5623,,188.046,33.414,34.1736,,188.046,45.7802,0.572439,57.2439,55.4464
189.897,16.932,18.6174,,189.897,31.959,33.1214,,189.897,52.9804,0.562098,56.2098,54.7507
191.749,16.113,18.4004,,191.749,30.958,32.8964,,191.749,52.0479,0.559343,55.9343,56.2952
193.601,13.385,17.3388,,193.601,36.958,33.1093,,193.601,36.2168,0.523684,52.3684,57.5829
195.453,17.202,16.4375,,195.453,35.139,34.5047,,195.453,48.9542,0.476385,47.6385,55.1862
197.304,20.656,17.9464,,197.304,32.684,33.3048,,197.304,63.1991,0.538854,53.8854,53.3454
199.156,18.564,18.4346,,199.156,31.229,32.1767,,199.156,59.4447,0.572919,57.2919,53.5537
201.008,17.108,18.4439,,201.008,33.41,32.5906,,201.008,51.2062,0.565926,56.5926,53.7385
202.86,15.289,17.2849,,202.86,33.046,32.9429,,202.86,46.2658,0.524691,52.4691,53.6001
204.711,14.379,16.0749,,204.711,35.046,34.2754,,204.711,41.0289,0.468991,46.8991,53.5316
206.563,17.105,15.9574,,206.563,39.227,35.2897,,206.563,43.6052,0.452182,45.2182,52.7077
208.415,17.286,16.7305,,208.415,44.135,39.2673,,208.415,39.1662,0.426067,42.6067,50.2156
210.267,18.376,16.5077,,210.267,38.771,40.755,,210.267,47.3962,0.405047,40.5047,46.9688
212.118,22.375,17.8879,,212.118,35.953,39.9513,,212.118,62.234,0.447742,44.7742,44.6924
213.97,18.647,18.9772,,213.97,35.043,37.0852,,213.97,53.2118,0.51172,51.172,44.6554
215.822,16.1,17.4691,,215.822,34.588,36.235,,215.822,46.5479,0.482107,48.2107,45.3484
217.673,16.827,16.3462,,217.673,38.315,36.4701,,217.673,43.9175,0.448208,44.8208,45.7599
219.525,20.098,16.6084,,219.525,36.314,37.2076,,219.525,55.345,0.446371,44.6371,46.3657
221.377,18.734,18.4508,,221.377,33.314,35.1484,,221.377,56.2346,0.52494,52.494,48.0583
223.229,13.914,16.4796,,223.229,30.586,34.7675,,223.229,45.4914,0.473995,47.3995,48.3216
225.08,16.277,16.1097,,225.08,30.312,31.8506,,225.08,53.6982,0.50579,50.579,48.1292
226.932,15.003,16.7675,,226.932,40.857,34.2874,,226.932,36.7208,0.489027,48.9027,48.7066
228.784,17.366,16.9993,,228.784,39.039,37.7254,,228.784,44.4837,0.450606,45.0606,49.038
230.636,20.547,17.7911,,230.636,38.674,39.4259,,230.636,53.1287,0.451254,45.1254,48.3395
232.487,16.909,17.5622,,232.487,34.674,37.3684,,232.487,48.7656,0.469974,46.9974,47.5364
234.339,17.454,16.9032,,234.339,39.219,37.2061,,234.339,44.5039,0.454311,45.4311,47.1252
236.191,16.907,17.655,,236.191,38.855,38.0541,,236.191,43.5131,0.463944,46.3944,46.2636
238.043,22.27,18.7259,,238.043,42.854,39.816,,238.043,51.9671,0.470311,47.0311,46.1941
239.894,24.632,21.9931,,239.894,50.49,43.6746,,239.894,48.7859,0.503567,50.3567,46.9741
241.746,25.904,23.4732,,241.746,58.489,49.6724,,241.746,44.2887,0.472561,47.2561,47.2203
243.598,23.812,24.4412,,243.598,58.307,54.5294,,243.598,40.839,0.448221,44.8221,46.9329
245.449,29.447,25.8351,,245.449,61.124,56.9949,,245.449,48.1758,0.453288,45.3288,46.7096
247.301,35.446,29.6933,,247.301,64.488,60.3314,,247.301,54.9653,0.492169,49.2169,47.11
249.153,29.809,31.1923,,249.153,70.123,63.8932,,249.153,42.5096,0.488194,48.8194,47.396
251.005,32.262,30.9507,,251.005,74.577,68.4614,,251.005,43.26,0.45209,45.209,46.856
252.856,33.17,32.8576,,252.856,75.668,72.1496,,252.856,43.8362,0.455409,45.5409,46.7492
254.681,31.351,33.5202,,254.681,82.758,75.8182,,254.681,37.8827,0.442113,44.2113,46.7464
256.513,34.35,33.4086,,256.513,84.939,79.6534,,256.513,40.4408,0.419425,41.9425,45.8469
258.347,33.439,34.1044,,258.347,79.12,81.0065,,258.347,42.2637,0.421008,42.1008,44.2939
260.181,36.62,34.79,,260.181,79.574,78.8582,,260.181,46.0201,0.441172,44.1172,43.5962
262.017,29.801,34.5626,,262.017,86.028,80.7691,,262.017,34.641,0.427918,42.7918,43.2684
263.853,29.8,32.0452,,263.853,83.755,82.9695,,263.853,35.58,0.386229,38.6229,42.2332
265.691,30.617,31.9671,,265.691,81.118,83.0698,,265.691,37.7438,0.384822,38.4822,41.4078
267.53,33.434,32.5551,,267.53,83.208,82.7602,,267.53,40.1812,0.393367,39.3367,40.8801
269.369,32.251,33.2394,,269.369,83.662,83.0511,,269.369,38.5492,0.400228,40.0228,40.3205
271.21,34.522,33.045,,271.21,87.48,84.5473,,271.21,39.4627,0.390846,39.0846,39.4232
273.052,36.885,34.7899,,273.052,81.934,85.4352,,273.052,45.0179,0.407208,40.7208,39.3124
274.895,37.156,35.7679,,274.895,78.478,82.5038,,274.895,47.3458,0.43353,43.353,40.1107
276.739,33.609,35.7268,,276.739,82.66,80.8835,,276.739,40.6593,0.441707,44.1707,41.1875
278.584,33.608,34.0704,,278.584,85.932,82.765,,278.584,39.11,0.411652,41.1652,41.6184
280.431,36.88,35.2938,,280.431,83.295,83.2018,,280.431,44.2764,0.424196,42.4196,42.0302
282.278,30.697,33.2512,,282.278,85.294,83.2551,,282.278,35.9896,0.399389,39.9389,42.2764
284.126,36.968,33.155,,284.126,88.657,85.4949,,284.126,41.6978,0.387801,38.7801,41.7055
285.976,37.24,35.3054,,285.976,83.656,85.7767,,285.976,44.5156,0.411597,41.1597,40.9979
287.826,33.784,35.2605,,287.826,82.383,83.9464,,287.826,41.0085,0.420036,42.0036,40.8474
289.678,36.873,34.8743,,289.678,79.2,83.0632,,289.678,46.5568,0.419852,41.9852,40.9263
291.531,32.509,35.4438,,291.531,81.2,82.3258,,291.531,40.0357,0.43053,43.053,41.1391
293.385,33.416,34.8842,,293.385,83.108,82.4176,,293.385,40.2079,0.423261,42.3261,41.7258
295.239,33.597,35.0183,,295.239,88.835,84.634,,295.239,37.8196,0.413762,41.3762,42.0796
297.095,34.141,33.9576,,297.095,81.652,85.6638,,297.095,41.8128,0.396405,39.6405,41.7297
298.952,30.049,32.4673,,298.952,81.833,83.2325,,298.952,36.7199,0.39008,39.008,41.2925
300.81,28.138,29.429,,300.81,81.56,81.5078,,300.81,34.4998,0.361057,36.1057,40.2346
302.669,34.864,30.4482,,302.669,83.559,82.7159,,302.669,41.7238,0.368106,36.8106,39.0728
304.53,32.227,32.0484,,304.53,86.377,84.3667,,304.53,37.3097,0.37987,37.987,38.2849
306.391,32.498,32.0224,,306.391,81.558,85.6932,,306.391,39.8465,0.373687,37.3687,37.7032
308.253,34.406,31.6499,,308.253,77.193,82.5594,,308.253,44.5714,0.383359,38.3359,37.3801
310.117,39.041,34.4461,,310.117,80.284,80.8732,,310.117,48.6286,0.425927,42.5927,38.0233
311.981,35.949,36.1673,,311.981,82.556,80.9298,,311.981,43.545,0.446897,44.6897,39.6097
313.847,34.129,36.0045,,313.847,87.373,81.8857,,313.847,39.0613,0.439692,43.9692,40.866
315.713,29.673,34.5308,,315.713,91.463,85.5911,,315.713,32.4426,0.40344,40.344,41.6083
317.581,33.399,33.3806,,317.581,90.19,88.5784,,317.581,37.0318,0.376848,37.6848,41.664
319.45,35.488,34.4155,,319.45,89.644,89.3886,,319.45,39.5877,0.38501,38.501,41.2877
321.319,33.396,34.4023,,321.319,82.188,88.1012,,321.319,40.6337,0.390486,39.0486,40.3597
323.19,34.758,34.8198,,323.19,84.46,86.0177,,323.19,41.1532,0.404798,40.4798,39.5459
325.062,32.575,34.3607,,325.062,83.46,85.5423,,325.062,39.0307,0.401681,40.1681,39.1858
326.935,34.846,33.747,,326.935,85.55,84.6431,,326.935,40.7317,0.398698,39.8698,39.4197
328.809,36.118,33.8435,,328.809,90.003,86.1662,,328.809,40.1298,0.39277,39.277,39.7371
330.685,37.389,34.8167,,330.685,84.73,86.5262,,330.685,44.1272,0.402383,40.2383,39.9217
332.561,32.115,34.2086,,332.561,84.275,85.7221,,332.561,38.1074,0.399064,39.9064,40.0513
334.438,35.204,33.8143,,334.438,84.547,85.1362,,334.438,41.6384,0.397179,39.7179,39.8454
336.316,38.657,36.0456,,336.316,86.728,85.1043,,336.316,44.5727,0.423547,42.3547,40.1826
338.196,34.838,36.6716,,338.196,87.454,86.1917,,338.196,39.8358,0.425466,42.5466,40.7559
340.076,31.563,35.0109,,340.076,87.272,86.6237,,340.076,36.1662,0.404173,40.4173,41.0537
341.958,33.562,33.4354,,341.958,89.18,87.7807,,341.958,37.634,0.380897,38.0897,40.6425
343.84,31.56,33.6005,,343.84,90.543,88.5763,,343.84,34.8564,0.379339,37.9339,40.3199
345.724,33.286,33.2334,,345.724,91.815,89.3781,,345.724,36.2533,0.37183,37.183,39.5954
347.609,31.105,33.8989,,347.609,89.459,89.3094,,347.609,34.7701,0.379567,37.9567,38.6077
349.495,28.19,31.263,,349.495,93.627,89.9856,,349.495,30.1088,0.347423,34.7423,37.4414
351.382,27.457,29.6709,,351.382,88.843,90.5661,,351.382,30.9051,0.327616,32.7616,36.3045
353.269,35.484,30.3189,,353.269,93.573,90.4043,,353.269,37.9212,0.33537,33.537,35.3427
355.158,39.748,34.663,,355.158,96.749,92.356,,355.158,41.0836,0.375319,37.5319,35.1297
357.048,37.555,36.31,,357.048,99.65,95.0671,,357.048,37.6869,0.381941,38.1941,35.2831
358.94,40.114,36.9591,,358.94,98.941,97.5787,,358.94,40.5434,0.378762,37.8762,35.5507
360.832,36.007,37.4097,,360.832,101.901,98.6542,,360.832,35.3353,0.3792,37.92,36.3887
362.725,38.74,37.0988,,362.725,105.458,101.011,,362.725,36.735,0.367276,36.7276,37.2177
364.619,38.616,38.051,,364.619,101.394,103.29,,364.619,38.0851,0.368389,36.8389,37.5445
366.515,38.814,38.4119,,366.515,105.344,103.188,,366.515,36.845,0.372251,37.2251,37.3764
368.411,42.554,40.4056,,368.411,107.973,105.209,,368.411,39.4117,0.384052,38.4052,37.3821
370.308,36.046,40.4728,,370.308,107.574,106.432,,370.308,33.5081,0.380269,38.0269,37.4296
372.207,39.456,38.4172,,372.207,109.207,108.154,,372.207,36.1296,0.355207,35.5207,37.1971
374.107,40.382,39.3893,,374.107,105.746,107.353,,374.107,38.1877,0.366914,36.6914,37.1381
376.007,43.603,40.8396,,376.007,116.159,108.759,,376.007,37.5373,0.375505,37.5505,37.1878
377.909,37.872,41.1159,,377.909,120.542,113.575,,377.909,31.4181,0.362014,36.2014,37.033
379.812,39.282,38.9552,,379.812,118.467,116.59,,379.812,33.1586,0.334122,33.4122,36.1555
381.716,36.595,38.801,,381.716,114.164,116.666,,381.716,32.0548,0.332583,33.2583,35.4863
383.62,43.415,39.8495,,383.62,117.663,117.335,,383.62,36.8978,0.339622,33.9622,35.0015
385.526,39.528,41.1418,,385.526,126.349,119.584,,385.526,31.2848,0.34404,34.404,34.5176
387.433,38.739,40.0499,,387.433,123.393,123.038,,387.433,31.3948,0.325509,32.5509,33.7214
389.341,40.732,40.5123,,389.341,126.559,123.366,,389.341,32.1842,0.328391,32.8391,33.3537
391.25,42.67,42.0374,,391.25,135.632,127.709,,391.25,31.4601,0.329165,32.9165,33.2806
393.161,39.447,41.1387,,393.161,147.268,133.945,,393.161,26.7859,0.307131,30.7131,32.9562
395.072,38.468,39.5026,,395.072,168.081,146.483,,395.072,22.8866,0.269674,26.9674,31.728
396.984,43.125,40.0683,,396.984,196.506,164.926,,396.984,21.9459,0.242947,24.2947,30.0988
398.897,44.955,42.154,,398.897,244.17,193.507,,398.897,18.4114,0.217842,21.7842,28.1909
400.812,38.641,41.7252,,400.812,307.693,235.647,,400.812,12.5583,0.177066,17.7066,25.5829
402.727,40.356,40.3709,,402.727,400.782,295.019,,402.727,10.0693,0.136842,13.6842,22.2941
404.644,42.698,42.0754,,404.644,535.775,382.114,,404.644,7.96939,0.110112,11.0112,19.0152
406.561,43.083,43.3152,,406.561,730.803,509.205,,406.561,5.8953,0.0850645,8.50645,15.9
408.48,44.883,43.7154,,408.48,1021.145,694.926,,408.48,4.39536,0.0629065,6.29065,12.7991
410.4,45.978,45.7634,,410.4,1452.911,968.406,,410.4,3.16454,0.0472564,4.72564,9.9476
412.32,44.186,45.2345,,412.32,2070.227,1369.03,,412.32,2.13436,0.0330413,3.30413,7.64299
414.242,47.861,45.9447,,414.242,2939.2,1943.03,,414.242,1.62837,0.0236459,2.36459,5.77964
416.165,48.59,47.6068,,416.165,4112.633,2746.6,,416.165,1.18148,0.017333,1.7333,4.2684
418.089,46.982,47.2827,,418.089,5705.194,3845.15,,418.089,0.823495,0.0122967,1.22967,3.11382
420.014,42.956,45.3633,,420.014,7809.094,5328.01,,420.014,0.550077,0.00851412,0.851412,2.23915
421.939,40.201,43.5358,,421.939,10487.644,7275.23,,421.939,0.383318,0.00598411,0.598411,1.59082
423.866,43.25,42.3331,,423.866,13764.393,9756.34,,423.866,0.314217,0.00433903,0.433903,1.13866
425.795,45.975,43.6257,,425.795,17656.791,12809.7,,425.795,0.260381,0.00340568,0.340568,0.815009
427.724,43.745,43.8045,,427.724,22181.078,16466.7,,427.724,0.197218,0.00266019,0.266019,0.583996
429.654,46.243,43.8022,,429.654,27351.265,20737,,429.654,0.169071,0.00211228,0.211228,0.42623
431.585,43.161,43.4725,,431.585,33285.158,25669.4,,431.585,0.12967,0.00169355,0.169355,0.321376
433.517,42.623,43.137,,433.517,39884.594,31296.3,,433.517,0.106866,0.00137834,0.137834,0.250827
435.451,46.97,43.8865,,435.451,47143.109,37597.2,,435.451,0.0996328,0.00116728,0.116728,0.200193
437.385,52.741,47.2256,,437.385,54434.033,44457.5,,437.385,0.0968898,0.00106226,0.106226,0.162544
439.32,47.996,47.7617,,439.32,60243.57,51246.6,,439.32,0.0796699,0.000931998,0.0931998,0.135443
441.257,46.106,46.4524,,441.257,63057.251,56809.8,,441.257,0.0731177,0.000817684,0.0817684,0.114939
443.194,52.532,47.7904,,443.194,62937.998,60139.8,,443.194,0.0834663,0.000794655,0.0794655,0.1007
445.133,49.621,50.204,,445.133,61193.827,61214.9,,445.133,0.0810882,0.000820127,0.0820127,0.0919149
447.072,46.18,48.9885,,447.072,57512.632,60395.7,,447.072,0.0802954,0.000811126,0.0811126,0.0861902
449.013,45.364,47.3834,,449.013,50613.182,57272.4,,449.013,0.0896288,0.000827335,0.0827335,0.0825325
450.955,53.997,48.0078,,450.955,41975.067,51614.2,,450.955,0.128641,0.000930129,0.0930129,0.0827489
452.897,53.26,52.1336,,452.897,34059.554,44507.7,,452.897,0.156373,0.00117134,0.117134,0.0883967
454.841,46.084,50.3729,,454.841,27745.913,37380.7,,454.841,0.166093,0.00134756,0.134756,0.0977548
456.786,49.313,49.0634,,456.786,22921.571,31061.9,,456.786,0.215138,0.00157954,0.157954,0.110818
458.732,47.48,48.7086,,458.732,19248.14,25831.9,,458.732,0.246673,0.0018856,0.18856,0.129471
460.679,46.754,48.3581,,460.679,16354.743,21633,,460.679,0.285874,0.00223538,0.223538,0.153594
462.627,43.547,47.0478,,462.627,13872.676,18231.7,,462.627,0.313905,0.00258055,0.258055,0.181116
464.576,43.011,45.9863,,464.576,11728.808,15397.6,,464.576,0.366712,0.00298659,0.298659,0.211476
466.526,44.644,44.616,,466.526,9934.298,13011.9,,466.526,0.449393,0.00342886,0.342886,0.246544
468.477,47.754,45.3192,,468.477,8502.236,11025.8,,468.477,0.561664,0.00411028,0.411028,0.287875
470.429,50.91,46.6067,,470.429,7363.688,9405.6,,470.429,0.691366,0.00495521,0.495521,0.338498
472.382,48.444,49.2276,,472.382,6502.234,8109.32,,472.382,0.745036,0.00607049,0.607049,0.402168
474.336,47.505,48.2991,,474.336,5844.546,7096.97,,474.336,0.812809,0.0068056,0.68056,0.475219
476.292,55.328,50.0664,,476.292,5343.422,6310.11,,476.292,1.03544,0.00793431,0.793431,0.558498
478.248,58.908,53.9032,,478.248,4960.583,5704.02,,478.248,1.18752,0.00945002,0.945002,0.65877
480.205,55.797,56.3222,,480.205,4673.005,5237.81,,480.205,1.19403,0.010753,1.0753,0.771325
482.164,53.211,54.7938,,482.164,4481.539,4889.84,,482.164,1.18734,0.0112056,1.12056,0.877898
484.123,63.271,56.4782,,484.123,4395.281,4648.59,,484.123,1.43952,0.0121495,1.21495,0.980271
486.083,64.964,60.0025,,486.083,4432.828,4520.15,,486.083,1.46552,0.0132744,1.32744,1.08938
488.045,73.836,63.7349,,488.045,4610.368,4514.47,,488.045,1.60152,0.0141179,1.41179,1.19003
490.007,80.546,70.1776,,490.007,4925.802,4639.4,,490.007,1.63519,0.0151264,1.51264,1.28157
491.971,86.541,76.5149,,491.971,5378.403,4897.99,,491.971,1.60905,0.0156217,1.56217,1.36884
493.936,99.457,84.5477,,493.936,5936.261,5285.32,,493.936,1.67541,0.0159967,1.59967,1.45158
495.901,120.137,96.9975,,495.901,6601.205,5789.11,,495.901,1.81993,0.0167552,1.67552,1.52414
497.868,139.294,113.48,,497.868,7369.365,6403.65,,497.868,1.89018,0.0177212,1.77212,1.59667
499.836,169.594,133.715,,499.836,8224.39,7121.8,,499.836,2.06209,0.0187754,1.87754,1.66973
501.804,207.667,162.04,,501.804,9125.372,7925.1,,501.804,2.27571,0.0204465,2.04465,1.75514
503.774,252.1,196.909,,503.774,10055.42,8786.79,,503.774,2.50711,0.0224097,2.24097,1.8697
505.745,301.773,237.42,,505.745,11001.973,9692.89,,505.745,2.7429,0.0244942,2.44942,2.0138
507.717,361.96,284.363,,507.717,11935.339,10610.4,,507.717,3.03267,0.0268004,2.68004,2.18278
509.69,436.71,343.81,,509.69,12884.921,11544.4,,509.69,3.38931,0.0297815,2.97815,2.38593
511.664,522.716,413.832,,511.664,13774.941,12472.2,,511.664,3.79469,0.0331804,3.31804,2.62656
513.639,624.362,495.995,,513.639,14632.225,13374,,513.639,4.26703,0.0370866,3.70866,2.90408
515.615,748.54,594.102,,515.615,15392.368,14228.9,,515.615,4.86306,0.0417533,4.17533,3.2265
517.592,872.552,706.536,,517.592,16059.305,15008.3,,517.592,5.43331,0.0470763,4.70763,3.60625
519.57,1012.584,827.825,,519.57,16675.782,15717.7,,519.57,6.07218,0.0526683,5.26683,4.04132
521.549,1173.874,963.922,,521.549,17207.023,16358.4,,521.549,6.82206,0.0589251,5.89251,4.5312
523.529,1348.558,1118.34,,523.529,17655.578,16920.3,,523.529,7.63814,0.0660947,6.60947,5.08358
525.51,1536.437,1285.85,,525.51,18014.552,17401.4,,525.51,8.52887,0.0738934,7.38934,5.70075
527.493,1744.173,1470.15,,527.493,18306.536,17801.1,,527.493,9.5276,0.082588,8.2588,6.38242
529.476,1970.153,1670.27,,529.476,18493.465,18119.2,,529.476,10.6532,0.0921822,9.21822,7.13795
531.46,2217.275,1889.59,,531.46,18579.761,18340.9,,531.46,11.9338,0.103026,10.3026,7.98094
533.446,2471.709,2125.48,,533.446,18621.056,18478.8,,533.446,13.2737,0.115023,11.5023,8.91932
535.432,2735.96,2372.52,,535.432,18656.156,18564,,535.432,14.6652,0.127802,12.7802,9.95503
537.419,3024.56,2633.34,,537.419,18589.524,18595.8,,537.419,16.2702,0.14161,14.161,11.091
539.408,3331.342,2915.1,,539.408,18555.23,18585.3,,539.408,17.9537,0.15685,15.685,12.3366
541.397,3644.949,3212.36,,541.397,18474.988,18555.5,,541.397,19.7291,0.173122,17.3122,13.6929
543.388,3982.004,3524.15,,543.388,18355.046,18478.9,,543.388,21.6943,0.190712,19.0712,15.1593
545.379,4340.805,3853.76,,545.379,18248.544,18389.5,,545.379,23.7871,0.209563,20.9563,16.7416
547.372,4716.066,4204.23,,547.372,18138.685,18289,,547.372,26,0.229877,22.9877,18.4515
549.365,5081.244,4562.96,,549.365,18001.624,18180.9,,549.365,28.2266,0.250975,25.0975,20.2836
551.36,5477.365,4932.94,,551.36,17827.735,18043.2,,551.36,30.7238,0.273397,27.3397,22.2345
553.356,5852.836,5312.76,,553.356,17631.285,17879.9,,553.356,33.1957,0.297136,29.7136,24.311
555.352,6251.505,5693.56,,555.352,17438.845,17704,,555.352,35.8482,0.321598,32.1598,26.5031
557.35,6639.14,6083.63,,557.35,17194.424,17508.3,,557.35,38.6122,0.347472,34.7472,28.8086
559.349,7034.59,6471.66,,559.349,16964.953,17284.3,,559.349,41.4654,0.374425,37.4425,31.2263
561.348,7417.136,6863.94,,561.348,16724.541,17056.8,,561.348,44.3488,0.402418,40.2418,33.7608
563.349,7765.12,7240.68,,563.349,16486.156,16821.8,,563.349,47.1009,0.430434,43.0434,36.3892
565.351,8083.704,7596.26,,565.351,16210.355,16578.2,,565.351,49.8675,0.458208,45.8208,39.0905
567.354,8388.007,7928.66,,567.354,15947.232,16321.1,,567.354,52.5985,0.485793,48.5793,41.8399
569.358,8680.685,8244.97,,569.358,15647.003,16051.9,,569.358,55.4783,0.513644,51.3644,44.6161
571.363,8922.643,8537.14,,571.363,15345.241,15765.6,,571.363,58.146,0.541503,54.1503,47.4009
573.368,9129.315,8790.77,,573.368,15002.594,15459.4,,573.368,60.8516,0.568635,56.8635,50.1718
575.375,9316.922,9016.21,,575.375,14677.251,15137.4,,575.375,63.4787,0.595627,59.5627,52.9258
577.383,9443.898,9208,,577.383,14388.348,14825.5,,577.383,65.6357,0.621091,62.1091,55.6489
579.392,9542.367,9355.6,,579.392,14080.889,14521.4,,579.392,67.7682,0.644264,64.4264,58.2989
581.402,9600.884,9468.66,,581.402,13725.902,14199,,581.402,69.9472,0.666856,66.6856,60.8495
583.413,9608.278,9542.41,,583.413,13385.451,13863.4,,583.413,71.7815,0.688316,68.8316,63.2926
585.425,9612.65,9577.02,,585.425,13055.171,13529.6,,585.425,73.631,0.707856,70.7856,65.6028
587.439,9590.707,9591.59,,587.439,12719.47,13200.2,,587.439,75.4018,0.726624,72.6624,67.7705
589.453,9507.581,9571.36,,589.453,12355.016,12856.6,,589.453,76.9532,0.744471,74.4471,69.8208
591.468,9411.255,9514.07,,591.468,12020.007,12510.8,,591.468,78.2966,0.76047,76.047,71.7521
593.484,9259.903,9426.09,,593.484,11629.292,12156.6,,593.484,79.6257,0.775391,77.5391,73.5493
595.501,9101.017,9298.01,,595.501,11274.682,11787.3,,595.501,80.7208,0.788814,78.8814,75.2199
597.519,8974.6,9163.65,,597.519,10930.996,11434.4,,597.519,82.1023,0.801413,80.1413,76.767
599.539,8823.142,9025.87,,599.539,10548.047,11075.8,,599.539,83.6472,0.814918,81.4918,78.2144
601.559,8658.879,8877.86,,601.559,10176.811,10704.1,,601.559,85.0844,0.829392,82.9392,79.6082
603.58,8522.208,8726.79,,603.58,9808.491,10337.4,,603.58,86.886,0.844193,84.4193,80.9878
605.602,8411.495,8591,,605.602,9418.219,9963.64,,605.602,89.3109,0.862235,86.2235,82.417
607.626,8306.807,8466.66,,607.626,9057.409,9587.64,,607.626,91.7128,0.88308,88.308,83.9848
609.65,8249.379,8367.83,,609.65,8698.072,9220.02,,609.65,94.8415,0.907572,90.7572,85.7474
611.675,8186.466,8289.68,,611.675,8328.233,8854.71,,611.675,98.2978,0.936189,93.6189,87.7666
613.702,8127.356,8219.28,,613.702,7979.385,8490.38,,613.702,101.854,0.968069,96.8069,90.0975
615.729,8037.85,8151.11,,615.729,7646.662,8140.66,,615.729,105.116,1.00128,100.128,92.7494
617.757,7900.923,8059.56,,617.757,7328.948,7802.55,,617.757,107.804,1.03294,103.294,95.6455
619.787,7720.634,7932.85,,619.787,7025.484,7482.23,,619.787,109.895,1.06022,106.022,98.6631
621.817,7475.251,7762.9,,621.817,6663.205,7153.51,,621.817,112.187,1.08519,108.519,101.663
623.849,7208.209,7545.1,,623.849,6369.927,6819.25,,623.849,113.16,1.10644,110.644,104.523
625.881,6935.752,7302.41,,625.881,6094.137,6517.8,,625.881,113.81,1.12038,112.038,107.067
627.915,6630.184,7034.52,,627.915,5795.847,6222.34,,627.915,114.395,1.13053,113.053,109.199
629.949,6326.182,6745.88,,629.949,5497.842,5923.01,,629.949,115.067,1.13893,113.893,110.932
631.985,6039.472,6454.72,,631.985,5232.336,5631.12,,631.985,115.426,1.14626,114.626,112.317
634.021,5749.69,6166.41,,634.021,4994.07,5361.63,,634.021,115.13,1.1501,115.01,113.345
636.059,5472.682,5880.74,,636.059,4766.117,5113.6,,636.059,114.825,1.15002,115.002,114.05
638.098,5185.461,5595.78,,638.098,4517.577,4868.13,,638.098,114.784,1.14947,114.947,114.515
640.137,4919.827,5312.57,,640.137,4288.097,4626.12,,640.137,114.732,1.14839,114.839,114.79
642.178,4677.432,5045.95,,642.178,4068.039,4392.94,,642.178,114.98,1.14865,114.865,114.907
644.219,4450.365,4796.54,,644.219,3855.442,4169.94,,644.219,115.431,1.15027,115.027,114.935
646.262,4213.249,4556.71,,646.262,3658.495,3957.4,,646.262,115.163,1.15144,115.144,114.953
648.306,3987.001,4319.91,,648.306,3464.138,3752.83,,648.306,115.094,1.15111,115.111,114.98
650.35,3782.75,4093.57,,650.35,3273.988,3551.52,,650.35,115.54,1.15263,115.263,115.037
652.396,3579.154,3878.45,,652.396,3100.836,3361.83,,652.396,115.425,1.15367,115.367,115.135
654.443,3370.233,3668.68,,654.443,2921.358,3180.81,,654.443,115.365,1.15338,115.338,115.216
656.49,3182.342,3465.31,,656.49,2753.059,3000.92,,656.49,115.593,1.15475,115.475,115.279
658.539,3019.444,3277.39,,658.539,2599.362,2830.31,,658.539,116.161,1.15796,115.796,115.384
660.589,2844.923,3098.93,,660.589,2455.779,2672.75,,660.589,115.846,1.15945,115.945,115.528
662.64,2669.448,2922.07,,662.64,2312.357,2524.22,,662.64,115.443,1.15761,115.761,115.624
664.691,2507.16,2747.67,,664.691,2173.615,2378.41,,664.691,115.345,1.15526,115.526,115.666
666.744,2374.917,2588.09,,666.744,2040.62,2237,,666.744,116.382,1.15695,115.695,115.711
668.798,2236.416,2441.13,,668.798,1920.246,2104.74,,668.798,116.465,1.15983,115.983,115.774
670.853,2096.586,2298.7,,670.853,1803.858,1979.23,,670.853,116.228,1.16141,116.141,115.822
672.909,1963.44,2159.02,,672.909,1709.54,1863.79,,672.909,114.852,1.1584,115.84,115.839
674.965,1841.486,2025.79,,674.965,1606.44,1757.95,,674.965,114.631,1.15236,115.236,115.797
677.023,1721.221,1898.68,,677.023,1511.369,1653.16,,677.023,113.885,1.14851,114.851,115.686
679.082,1625.012,1781.86,,679.082,1424.436,1557.02,,679.082,114.081,1.1444,114.44,115.441
681.142,1523.258,1674.83,,681.142,1322.742,1461.36,,681.142,115.159,1.14607,114.607,115.143
683.203,1426.052,1570.48,,683.203,1254.116,1371.04,,683.203,113.71,1.14546,114.546,114.869
685.265,1340.134,1474,,685.265,1179.629,1292.23,,685.265,113.606,1.14066,114.066,114.602
687.327,1254.012,1382.78,,687.327,1104.938,1213.33,,687.327,113.492,1.13966,113.966,114.396
689.391,1177.02,1295.21,,689.391,1043.367,1141.15,,689.391,112.81,1.13501,113.501,114.206
691.456,1111.304,1215.84,,691.456,979.101,1073.44,,691.456,113.502,1.13265,113.265,113.995
693.522,1035.784,1142.68,,693.522,920.032,1009.65,,693.522,112.581,1.13175,113.175,113.729
695.589,968.629,1069.81,,695.589,866.953,948.17,,695.589,111.728,1.12829,112.829,113.471
697.657,913.694,1002.28,,697.657,814.832,891.84,,697.657,112.133,1.12383,112.383,113.176
699.726,856.175,941.162,,699.726,764.473,838.303,,699.726,111.995,1.1227,112.27,112.89
701.796,805.676,883.356,,701.796,726.592,789.986,,701.796,110.884,1.11819,111.819,112.625
703.867,746.704,827.208,,703.867,677.987,744.417,,703.867,110.135,1.11122,111.122,112.257
705.939,697.579,771.995,,705.939,647.077,701.379,,705.939,107.805,1.10068,110.068,111.758
708.012,656.648,722.761,,708.012,604.308,662.696,,708.012,108.661,1.09064,109.064,111.134
710.085,617.196,677.499,,710.085,570.329,623.725,,710.085,108.218,1.08622,108.622,110.47
712.16,582.538,636.372,,712.16,539.844,588.761,,712.16,107.909,1.08087,108.087,109.735
714.236,543.844,597.908,,714.236,511.659,556.524,,714.236,106.29,1.07436,107.436,109.005
716.313,502.797,558.628,,716.313,478.551,526.21,,716.313,105.067,1.06161,106.161,108.22
718.391,463.287,518.859,,718.391,452.734,495.41,,718.391,102.331,1.04733,104.733,107.398
720.47,436.296,482.665,,720.47,418.83,464.811,,720.47,104.17,1.03841,103.841,106.464
722.55,407.942,451.425,,722.55,391.589,433.196,,722.55,104.176,1.04208,104.208,105.647
724.631,385.932,422.796,,724.631,374.361,406.446,,724.631,103.091,1.04023,104.023,104.925
726.713,357.922,396.316,,726.713,354.602,384.824,,726.713,100.936,1.02986,102.986,104.247
728.796,337.771,371.002,,728.796,341.466,365.659,,728.796,98.9179,1.01461,101.461,103.551
730.88,319.252,349.683,,730.88,327.674,349.482,,730.88,97.4298,1.00058,100.058,102.843
732.965,300.854,329.283,,732.965,310.396,333.134,,732.965,96.9259,0.988438,98.8438,101.922
735.051,285.972,310.032,,735.051,297.457,317.468,,735.051,96.1389,0.976575,97.6575,100.768
737.138,267.859,292.099,,737.138,281.755,303.655,,737.138,95.0681,0.961941,96.1941,99.4397
739.226,258.132,276.492,,739.226,272.333,289.817,,739.226,94.7854,0.95402,95.402,98.1614
741.315,241.85,263.476,,741.315,265.377,279.963,,741.315,91.1345,0.941112,94.1112,96.9758
743.405,231.765,249.662,,743.405,255.419,269.041,,743.405,90.7391,0.927972,92.7972,95.7817
745.496,218.988,237.572,,745.496,249.917,259.515,,745.496,87.6243,0.915449,91.5449,94.5726
747.588,206.377,223.977,,747.588,236.862,251.014,,747.588,87.1296,0.892288,89.2288,93.2061
749.681,201.448,212.68,,749.681,227.883,241.189,,749.681,88.3997,0.881797,88.1797,91.7984
751.775,194.927,204.474,,751.775,220.625,232.002,,751.775,88.3522,0.881345,88.1345,90.5193
753.87,179.583,195.591,,753.87,216.843,224.531,,753.87,82.8171,0.871108,87.1108,89.4025
755.966,166.718,183.398,,755.966,208.966,217.996,,755.966,79.7824,0.841292,84.1292,88.0097
758.063,154.931,172.446,,758.063,195.128,209.832,,758.063,79.3997,0.821831,82.1831,86.5303
760.161,144.809,159.229,,760.161,183.156,199.423,,760.161,79.0632,0.798447,79.8447,84.967
762.26,140.211,150.088,,762.26,171.56,187.901,,762.26,81.7271,0.798764,79.8764,83.3721
764.36,131.752,140.837,,764.36,174.316,179.93,,764.36,75.5823,0.782729,78.2729,81.6687
766.461,134.998,136.841,,766.461,174.35,176.433,,766.461,77.4293,0.775596,77.5596,80.1044
768.562,125.594,133.755,,768.562,175.116,175.376,,768.562,71.7205,0.762674,76.2674,78.8896
770.665,116.423,127.267,,770.665,174.177,175.286,,770.665,66.8418,0.726056,72.6056,77.4913
772.769,116.015,121.116,,772.769,166.977,172.477,,772.769,69.4796,0.702218,70.2218,75.7543
774.874,118.735,118.951,,774.874,158.966,167.045,,774.874,74.6921,0.712093,71.2093,74.097
776.98,117.134,118.328,,776.98,155.872,161.839,,776.98,75.1476,0.731145,73.1145,73.122
779.087,105.909,114.933,,779.087,156.805,158.42,,779.087,67.5419,0.725498,72.5498,72.322
781.195,100.973,109.151,,781.195,156.194,157.349,,781.195,64.6459,0.693688,69.3688,71.4611
783.304,97.242,103.538,,783.304,147.827,153.492,,783.304,65.7809,0.674549,67.4549,70.8258
785.414,90.256,98.38,,785.414,144.526,149.549,,785.414,62.4497,0.657843,65.7843,70.0473
787.525,85.52,92.6199,,787.525,139.035,145.191,,787.525,61.5097,0.637917,63.7917,68.577
789.637,88.817,90.3311,,789.637,139.446,141.858,,789.637,63.6928,0.63677,63.677,66.7618
791.749,88.863,91.4587,,791.749,141.085,142.088,,791.749,62.9854,0.643679,64.3679,65.4683
793.863,83.834,89.211,,793.863,132.96,139.848,,793.863,63.052,0.637913,63.7913,64.6471
795.978,83.492,86.6641,,795.978,133.657,136.672,,795.978,62.4674,0.634103,63.4103,64.0287
798.094,73.635,82.8907,,798.094,128.597,134.167,,798.094,57.2603,0.617818,61.7818,63.5899
800.211,70.152,77.3204,,800.211,125.54,130.027,,800.211,55.8802,0.594649,59.4649,62.9112
802.329,75.959,75.8059,,802.329,125.322,126.527,,802.329,60.6111,0.599127,59.9127,62.0448
804.448,72.587,74.79,,804.448,126.564,125.502,,804.448,57.352,0.595927,59.5927,61.1914
806.567,74.838,73.8394,,806.567,127.1,126.252,,806.567,58.8812,0.584858,58.4858,60.2434
808.688,73.859,73.9612,,808.688,125.336,125.674,,808.688,58.9288,0.588516,58.8516,59.4093
810.81,69.066,72.5804,,810.81,128.377,125.906,,810.81,53.7994,0.576463,57.6463,58.9386
812.933,65.059,69.0724,,812.933,128.684,127.414,,812.933,50.5572,0.542111,54.2111,58.1674
815.057,66.61,68.0921,,815.057,131.63,128.308,,815.057,50.604,0.530694,53.0694,56.9249
817.181,58.717,65.0062,,817.181,134.057,130.993,,817.181,43.8,0.496258,49.6258,55.4122
819.307,60.296,60.2563,,819.307,134.203,132.623,,819.307,44.929,0.454344,45.4344,53.1479
821.434,60.268,60.1196,,821.434,138.133,134.892,,821.434,43.6304,0.445688,44.5688,50.5415
823.562,58.316,59.2206,,823.562,145.596,138.069,,823.562,40.0533,0.428919,42.8919,48.1404
825.69,60.343,59.2244,,825.69,157.121,145.507,,825.69,38.4054,0.407021,40.7021,45.8169
827.82,65.283,60.7016,,827.82,168.83,154.695,,827.82,38.6679,0.392395,39.2395,43.476
829.951,63.61,62.7327,,829.951,187.22,166.443,,829.951,33.9761,0.376902,37.6902,41.6792
832.082,58.405,60.6497,,832.082,198.489,179.92,,832.082,29.4248,0.337093,33.7093,39.7561
834.215,52.577,57.9016,,834.215,201.865,189.843,,834.215,26.0456,0.304997,30.4997,37.3694
836.349,44.784,52.725,,836.349,207.147,196.953,,836.349,21.6194,0.267704,26.7704,34.7377
838.483,50.275,50.1389,,838.483,222.062,205.189,,838.483,22.6401,0.244354,24.4354,31.9144
840.619,53.497,50.7366,,840.619,263.204,223.758,,840.619,20.3253,0.226748,22.6748,28.9889
842.755,61.989,55.2228,,842.755,318.202,257.623,,842.755,19.481,0.214355,21.4355,26.2706
844.893,55.282,58.0156,,844.893,387.235,307.147,,844.893,14.2761,0.188886,18.8886,23.898
847.032,56.139,56.4647,,847.032,466.216,368.742,,847.032,12.0414,0.153128,15.3128,21.4779
849.171,59.819,56.9461,,849.171,539.76,438.841,,849.171,11.0825,0.129765,12.9765,19.2005
851.312,53.982,57.1498,,851.312,610.079,508.559,,851.312,8.84836,0.112376,11.2376,16.9417
853.453,50.95,55.3021,,853.453,689.743,581.82,,853.453,7.38681,0.0950503,9.50503,14.6652
855.596,57.616,54.8085,,855.596,759.16,656.437,,855.596,7.58944,0.0834939,8.34939,12.4115
857.739,57.469,56.1428,,857.739,812.332,725.108,,857.739,7.07457,0.0774269,7.74269,10.6507
859.884,50.361,54.3066,,859.884,862.41,785.218,,859.884,5.83957,0.0691612,6.91612,9.32346
862.029,48.726,52.0705,,862.029,898.871,836.763,,862.029,5.4208,0.0622285,6.22285,8.21036
864.175,43.208,48.8755,,864.175,922.193,874.941,,864.175,4.68535,0.0558615,5.58615,7.31385
866.323,39.566,44.4498,,866.323,948.126,906.049,,866.323,4.17307,0.0490589,4.90589,6.58243
868.471,36.651,41.6453,,868.471,980.672,936.191,,868.471,3.73734,0.0444838,4.44838,5.9119
870.621,31.726,37.3312,,870.621,1024.768,969.541,,870.621,3.09592,0.038504,3.8504,5.26469
872.771,36.969,35.4901,,872.771,1083.951,1012.27,,872.771,3.41058,0.0350599,3.50599,4.68893
874.922,33.377,35.1958,,874.922,1160.046,1067.67,,874.922,2.87721,0.032965,3.2965,4.20255
877.075,29.794,32.6842,,877.075,1245.479,1136.88,,877.075,2.39217,0.0287491,2.87491,3.77216
879.228,30.99,31.1873,,879.228,1335.583,1215.24,,879.228,2.32034,0.0256635,2.56635,3.38279
881.382,35.515,32.5064,,881.382,1432.739,1301.79,,881.382,2.47882,0.0249705,2.49705,3.06171
883.537,33.523,34.2151,,883.537,1518.439,1391.7,,883.537,2.20773,0.0245851,2.45851,2.83875
885.694,31.629,33.5461,,885.694,1584.213,1475.52,,885.694,1.99651,0.0227352,2.27352,2.62653
887.851,37.085,34.0507,,887.851,1636.196,1547.2,,887.851,2.26654,0.022008,2.2008,2.45194
890.009,38.635,35.9019,,890.009,1657.704,1600.32,,890.009,2.33063,0.0224342,2.24342,2.35885
892.168,39.13,37.2156,,892.168,1657.649,1631.54,,892.168,2.36057,0.0228101,2.28101,2.31236
894.328,38.429,38.082,,894.328,1620.526,1638.07,,894.328,2.37139,0.0232482,2.32482,2.2781
896.489,40.448,38.88,,896.489,1547.895,1611.23,,896.489,2.6131,0.0241306,2.41306,2.27727
898.651,38.897,39.665,,898.651,1475.081,1559.2,,898.651,2.63694,0.0254394,2.54394,2.33196
900.815,41.551,39.5951,,900.815,1377.637,1491.2,,900.815,3.01611,0.0265524,2.65524,2.40824
902.979,41.547,40.1258,,902.979,1265.567,1401.21,,902.979,3.28288,0.0286366,2.86366,2.51235
905.144,39.914,40.2732,,905.144,1169.907,1305.49,,905.144,3.41172,0.0308491,3.08491,2.6515
907.31,39.42,39.4582,,907.31,1070.254,1208.49,,907.31,3.68324,0.0326509,3.26509,2.81607
909.477,41.364,40.9851,,909.477,984.826,1114.05,,909.477,4.20013,0.0367893,3.67893,3.02063
911.644,33.628,39.37,,911.644,905.197,1026.83,,911.644,3.71499,0.0383415,3.83415,3.25287
913.813,37.057,37.1121,,913.813,826.463,943.294,,913.813,4.48381,0.0393431,3.93431,3.46618
915.983,37.397,37.0948,,915.983,763.633,866.24,,915.983,4.89725,0.0428228,4.28228,3.6952
918.154,38.464,37.5317,,918.154,707.802,798.941,,918.154,5.43429,0.0469769,4.69769,3.96321
920.326,38.168,38.0595,,920.326,658.335,738.542,,920.326,5.79766,0.0515333,5.15333,4.2664
922.499,35.053,37.1409,,922.499,619.14,687.557,,922.499,5.66156,0.0540186,5.40186,4.56358
924.673,37.392,37.0831,,924.673,572.491,640.618,,924.673,6.53146,0.0578865,5.78865,4.90965
926.847,32.549,36.1105,,926.847,533.023,594.896,,926.847,6.10649,0.0607004,6.07004,5.27944
929.023,36.069,34.5991,,929.023,495.646,552.506,,929.023,7.27717,0.0626222,6.26222,5.59871
931.2,37.861,35.7417,,931.2,450.36,511.466,,931.2,8.40683,0.0698808,6.98808,5.95305
933.377,40.562,36.5739,,933.377,421.073,471.837,,933.377,9.63301,0.0775138,7.75138,6.3833
935.556,38.627,38.4746,,935.556,393.514,438.85,,935.556,9.81592,0.0876715,8.76715,6.94318
937.736,37.145,38.0994,,937.736,366.863,407.672,,937.736,10.125,0.0934561,9.34561,7.55307
939.916,33.482,36.3442,,939.916,336.849,378.683,,939.916,9.93977,0.0959753,9.59753,8.20739
942.098,37.908,35.7391,,942.098,315.743,351.501,,942.098,12.006,0.101676,10.1676,8.85005
944.28,35.789,36.5989,,944.28,297.273,329.091,,944.28,12.0391,0.111212,11.1212,9.52913
946.464,35.579,35.5584,,946.464,286.44,309.688,,946.464,12.4211,0.11482,11.482,10.1306
948.648,38.459,36.9879,,948.648,274.516,295.151,,948.648,14.0097,0.125319,12.5319,10.7297
950.834,32.611,35.5827,,950.834,256.955,280.031,,950.834,12.6913,0.127067,12.7067,11.3479
953.02,37.49,34.1961,,953.02,245.484,264.651,,953.02,15.2719,0.129212,12.9212,11.917
955.207,37.551,35.129,,955.207,237.922,252.672,,955.207,15.7829,0.13903,13.903,12.4907
957.396,38.974,36.4939,,957.396,231.088,242.928,,957.396,16.8654,0.150225,15.0225,13.129
959.585,42.579,39.1104,,959.585,230.708,237.317,,959.585,18.4558,0.164803,16.4803,13.918
961.775,38.092,40.0161,,961.775,226.509,233.313,,961.775,16.817,0.171512,17.1512,14.7309
963.966,40.605,39.211,,963.966,221.946,228.965,,963.966,18.295,0.171254,17.1254,15.5602
966.159,40.3,39.5293,,966.159,215.292,223.899,,966.159,18.7188,0.17655,17.655,16.3272
968.352,43.63,41.1293,,968.352,215.365,219.144,,968.352,20.2586,0.187681,18.7681,17.0894
970.546,40.414,42.0301,,970.546,215.711,216.856,,970.546,18.7353,0.193815,19.3815,17.7612
972.741,38.561,40.4287,,972.741,212.511,215.025,,972.741,18.1454,0.188018,18.8018,18.1663
974.937,39.253,39.4852,,974.937,210.31,212.698,,974.937,18.6644,0.18564,18.564,18.4447
977.134,33.671,38.744,,977.134,212.746,211.681,,977.134,15.8269,0.18303,18.303,18.6671
979.332,33.362,35.9442,,979.332,213.999,212.673,,979.332,15.5898,0.169012,16.9012,18.5167
981.531,35.053,36.0566,,981.531,226.343,215.416,,981.531,15.4867,0.167381,16.7381,18.0753
983.731,38.106,36.554,,983.731,234.142,224.264,,983.731,16.2747,0.162995,16.2995,17.5527
985.932,39.977,38.4969,,985.932,233.939,229.218,,985.932,17.0886,0.167949,16.7949,17.1845
988.134,41.21,40.432,,988.134,243.737,234.062,,988.134,16.9076,0.17274,17.274,16.9084
990.336,41.262,40.9026,,990.336,255.716,241.973,,990.336,16.1359,0.169038,16.9038,16.7912
992.54,47.676,42.571,,992.54,261.968,250.41,,992.54,18.1992,0.170005,17.0005,16.8102
994.745,42.999,44.5599,,994.745,267.673,257.952,,994.745,16.064,0.172745,17.2745,16.9621
996.951,42.593,44.0815,,996.951,275.56,265.407,,996.951,15.4569,0.16609,16.609,17.0199
999.157,36.824,42.0998,,999.157,287.447,272.94,,999.157,12.8107,0.154246,15.4246,16.7865
1001.365,37.781,39.1857,,1001.365,296.424,282.111,,1001.365,12.7456,0.138902,13.8902,16.2409
1003.573,41.555,39.5146,,1003.573,306.674,291.529,,1003.573,13.5502,0.135543,13.5543,15.6303
1005.783,43.783,40.1983,,1005.783,321.741,302.439,,1005.783,13.6082,0.132914,13.2914,14.9021
1007.993,48.283,42.2299,,1007.993,339.626,317.384,,1007.993,14.2165,0.133056,13.3056,14.2039
1010.205,56.419,47.4146,,1010.205,357.42,333.92,,1010.205,15.7851,0.141994,14.1994,13.7755
1012.417,49.827,51.5731,,1012.417,379.486,351.275,,1012.417,13.1301,0.146817,14.6817,13.771
1014.631,46.688,49.8857,,1014.631,405.551,372.643,,1014.631,11.5122,0.13387,13.387,13.7853
1016.845,52.367,50.5496,,1016.845,432.98,396.621,,1016.845,12.0946,0.127451,12.7451,13.6654
1019.06,56.499,53.4788,,1019.06,471.045,424.948,,1019.06,11.9944,0.125848,12.5848,13.5345
1021.277,52.812,55.019,,1021.277,501.291,456.584,,1021.277,10.5352,0.120501,12.0501,13.2713
1023.494,54.216,54.1689,,1023.494,523.264,484.683,,1023.494,10.3611,0.111762,11.1762,12.6686
1025.712,59.982,56.3811,,1025.712,550.418,510.572,,1025.712,10.8975,0.110427,11.0427,12.0901
1027.931,58.201,57.367,,1027.931,568.39,536.22,,1027.931,10.2396,0.106984,10.6984,11.6755
1030.151,64.511,60.0061,,1030.151,579.543,554.781,,1030.151,11.1314,0.108162,10.8162,11.3133
1032.372,59.092,61.0024,,1032.372,592.787,571.044,,1032.372,9.9685,0.106826,10.6826,11.0092
1034.594,65.4,61.3492,,1034.594,595.121,583.612,,1034.594,10.9894,0.10512,10.512,10.7946
1036.817,71.889,65.1949,,1036.817,599.091,590.118,,1036.817,11.9997,0.110478,11.0478,10.755
1039.041,73.74,68.718,,1039.041,600.696,595.849,,1039.041,12.2758,0.115328,11.5328,10.8432
1041.266,72.226,70.6994,,1041.266,615.211,602.775,,1041.266,11.74,0.11729,11.729,11.0362
1043.492,69.53,70.7872,,1043.492,618.997,611.694,,1043.492,11.2327,0.115723,11.5723,11.1871
1045.718,74.378,71.7899,,1045.718,613.056,613.932,,1045.718,12.1323,0.116935,11.6935,11.3951
1047.946,83.315,76.0191,,1047.946,622.659,616.056,,1047.946,13.3805,0.123396,12.3396,11.663
1050.175,84.616,79.6033,,1050.175,619.807,619.39,,1050.175,13.652,0.128519,12.8519,11.9462
1052.405,85.915,80.9335,,1052.405,617.318,618.355,,1052.405,13.9175,0.130885,13.0885,12.2068
1054.635,88.94,83.4051,,1054.635,616.465,617.427,,1054.635,14.4274,0.135085,13.5085,12.5315
1056.867,92.964,86.036,,1056.867,614.339,616.338,,1056.867,15.1324,0.139592,13.9592,12.96
1059.099,95.623,89.6435,,1059.099,611.576,614.856,,1059.099,15.6355,0.145796,14.5796,13.4311
1061.333,93.735,91.5964,,1061.333,602.448,611.407,,1061.333,15.559,0.149812,14.9812,13.8653
1063.567,100.483,94.3911,,1063.567,594.774,604.965,,1063.567,16.8943,0.156027,15.6027,14.3227
1065.802,100.775,97.7609,,1065.802,591.191,598.552,,1065.802,17.0461,0.163329,16.3329,14.8639
1068.039,109.701,101.095,,1068.039,584.425,593.979,,1068.039,18.7708,0.1702,17.02,15.45
1070.276,109.081,105.396,,1070.276,578.385,587.974,,1070.276,18.8596,0.179253,17.9253,16.1062
1072.514,108.914,106.952,,1072.514,568.981,580.469,,1072.514,19.1419,0.184251,18.4251,16.7712
1074.753,113.292,109.451,,1074.753,569.85,575.284,,1074.753,19.881,0.190256,19.0256,17.4616
1076.993,112.667,111.808,,1076.993,557.626,569.992,,1076.993,20.2048,0.196157,19.6157,18.1241
1079.234,116.405,112.964,,1079.234,555.402,562.556,,1079.234,20.9587,0.200804,20.0804,18.7586
1081.476,117.505,115.05,,1081.476,553.268,558.451,,1081.476,21.2384,0.206016,20.6016,19.3268
1083.719,122.422,117.706,,1083.719,545.496,554.823,,1083.719,22.4423,0.212151,21.2151,19.8667
1085.963,121.61,120.593,,1085.963,533.633,546.855,,1085.963,22.7891,0.22052,22.052,20.4617
1088.208,127.251,122.439,,1088.208,527.133,538.509,,1088.208,24.1402,0.227366,22.7366,21.0717
1090.454,128.527,125.116,,1090.454,525.905,532.379,,1090.454,24.4392,0.235013,23.5013,21.732
1092.772,141.347,130.036,,1092.772,518.494,526.253,,1092.772,27.2611,0.247098,24.7098,22.4781
1094.985,145.074,138.008,,1094.985,516.445,519.848,,1094.985,28.0909,0.265478,26.5478,23.4605
1097.197,141.617,139.654,,1097.197,516.578,518.054,,1097.197,27.4144,0.269574,26.9574,24.4621
1099.409,144.886,141.304,,1099.409,504.074,513.399,,1099.409,28.743,0.275233,27.5233,25.4127
1101.622,143.881,142.481,,1101.622,501.659,507.463,,1101.622,28.681,0.280771,28.0771,26.3296
1103.834,148.056,143.719,,1103.834,488.698,501.131,,1103.834,30.296,0.28679,28.679,27.1938
1106.047,156.047,147.328,,1106.047,483.282,493.714,,1106.047,32.289,0.298407,29.8407,27.9417
1108.259,155.855,151.627,,1108.259,474.683,486.317,,1108.259,32.8335,0.311786,31.1786,28.7086
1110.472,158.116,154.178,,1110.472,471.264,479.163,,1110.472,33.5515,0.321765,32.1765,29.6116
1112.684,162.374,157.554,,1112.684,471.027,474.964,,1112.684,34.4723,0.331717,33.1717,30.577
1114.897,165.631,161.882,,1114.897,459.152,469.441,,1114.897,36.0732,0.34484,34.484,31.6744
1117.109,168.795,165.724,,1117.109,452.004,461.556,,1117.109,37.3437,0.359055,35.9055,32.8813
1119.321,167.957,166.727,,1119.321,444.854,455.114,,1119.321,37.7555,0.36634,36.634,34.0151
1121.534,178.299,169.809,,1121.534,436.522,447.135,,1121.534,40.8454,0.379771,37.9771,35.1272
1123.746,177.276,173.131,,1123.746,433.189,440.343,,1123.746,40.9235,0.393172,39.3172,36.3387
1125.959,182.523,176.133,,1125.959,422.491,435.03,,1125.959,43.2016,0.404876,40.4876,37.5488
1128.171,184.314,180.023,,1128.171,409.246,425.119,,1128.171,45.0375,0.423466,42.3466,38.8183
1130.384,180.012,180.985,,1130.384,401.001,414.743,,1130.384,44.8907,0.43638,43.638,40.1515
1132.596,179.707,179.945,,1132.596,390.936,405.394,,1132.596,45.9684,0.443877,44.3877,41.4885
1134.809,179.219,178.779,,1134.809,382.688,396.804,,1134.809,46.8316,0.450548,45.0548,42.6697
1137.021,181.73,180.383,,1137.021,371.531,387.432,,1137.021,48.9138,0.465586,46.5586,43.8713
1139.233,176.783,179.938,,1139.233,365.917,378.168,,1139.233,48.3123,0.475816,47.5816,45.0196
1141.446,173.653,176.533,,1141.446,355.303,369.536,,1141.446,48.8746,0.477715,47.7715,45.9199
1143.658,176.066,175.256,,1143.658,344.505,357.825,,1143.658,51.107,0.489781,48.9781,46.7963
1145.871,176.477,175.958,,1145.871,340.343,349.602,,1145.871,51.8527,0.503309,50.3309,47.7932
1148.083,180.886,176.543,,1148.083,326.18,342.185,,1148.083,55.4559,0.515928,51.5928,48.8415
1150.296,179.202,177.612,,1150.296,320.471,332.139,,1150.296,55.9183,0.534754,53.4754,49.9641
1152.508,172.516,177.152,,1152.508,310.396,323.888,,1152.508,55.5793,0.546956,54.6956,51.2381
1154.721,172.919,175.134,,1154.721,296.048,311.866,,1154.721,58.4091,0.561568,56.1568,52.6261
1156.933,172.321,173.868,,1156.933,294.972,303.517,,1156.933,58.4194,0.572845,57.2845,54.0177
1159.145,173.174,172.196,,1159.145,290.894,299.059,,1159.145,59.5317,0.575793,57.5793,55.2729
1161.358,167.754,170.59,,1161.358,277.725,291.297,,1161.358,60.4029,0.585621,58.5621,56.3717
1163.57,162.24,166.363,,1163.57,272.555,282.078,,1163.57,59.5256,0.589777,58.9777,57.3004
1165.783,156.906,162.958,,1165.783,262.111,273.739,,1165.783,59.8624,0.595306,59.5306,58.0985
1167.995,157.389,159.641,,1167.995,255.484,264.346,,1167.995,61.6042,0.603909,60.3909,58.7416
1170.208,164.325,160.03,,1170.208,251.947,258.469,,1170.208,65.2221,0.619146,61.9146,59.5055
1172.42,154.077,159.281,,1172.42,239.228,251.874,,1172.42,64.4059,0.632383,63.2383,60.429
1174.633,154.1,155.616,,1174.633,233.962,243.314,,1174.633,65.8654,0.639567,63.9567,61.3444
1176.845,149.758,154.366,,1176.845,233.696,237.788,,1176.845,64.0824,0.649175,64.9175,62.3849
1179.057,141.233,149.252,,1179.057,227.519,234.273,,1179.057,62.0753,0.637086,63.7086,63.2111
1181.27,140.07,144.203,,1181.27,221.706,229.789,,1181.27,63.1783,0.627545,62.7545,63.5962
1183.482,144.633,143.006,,1183.482,213.346,223.527,,1183.482,67.7927,0.63977,63.977,63.7646
1185.695,141.559,143.245,,1185.695,208.713,217.508,,1185.695,67.8247,0.658575,65.8575,64.1357
1187.907,129.574,138.353,,1187.907,205.989,212.148,,1187.907,62.9034,0.652154,65.2154,64.3564
1190.12,129.043,133.455,,1190.12,204.264,209.467,,1190.12,63.1746,0.637119,63.7119,64.2777
1192.332,120.602,129.898,,1192.332,196.265,204.049,,1192.332,61.4486,0.636601,63.6601,64.3609
1194.545,116.615,123.327,,1194.545,189.358,197.741,,1194.545,61.5844,0.62368,62.368,64.2924
1196.757,120.81,120.796,,1196.757,193.177,193.961,,1196.757,62.5385,0.622784,62.2784,63.7768
1198.969,113.822,118.932,,1198.969,190.906,193.006,,1198.969,59.622,0.616208,61.6208,63.0331
1201.182,111.015,114.998,,1201.182,186.088,190.567,,1201.182,59.6573,0.603451,60.3451,62.3109
1203.394,106.118,111.72,,1203.394,191.18,189.25,,1203.394,55.5069,0.590329,59.0329,61.5064
1205.607,103.585,108.466,,1205.607,190.818,190.793,,1205.607,54.2847,0.568504,56.8504,60.4392
1207.819,98.233,104.115,,1207.819,187.182,190.204,,1207.819,52.4799,0.547387,54.7387,59.1244
1210.032,90.973,98.2649,,1210.032,177.456,185.966,,1210.032,51.2651,0.528402,52.8402,57.4559
1212.244,92.169,94.2656,,1212.244,174.367,180.512,,1212.244,52.8592,0.522213,52.2213,55.8118
1214.456,85.638,92.0595,,1214.456,171.188,177.486,,1214.456,50.0257,0.518686,51.8686,54.3475
1216.669,84.926,88.5065,,1216.669,160.555,172.299,,1216.669,52.8953,0.513679,51.3679,53.0913
1218.881,89.307,87.4269,,1218.881,145.922,163.047,,1218.881,61.2019,0.536206,53.6206,52.4877
1221.094,83.326,87.2141,,1221.094,131.745,151.738,,1221.094,63.2479,0.574768,57.4768,52.9921
1223.306,72.62,81.1392,,1223.306,122.66,140.321,,1223.306,59.2043,0.578238,57.8238,54.0443
1225.519,67.188,76.2882,,1225.519,114.121,128.737,,1225.519,58.8744,0.59259,59.259,55.2792
1227.731,66.85,72.0255,,1227.731,109.584,119.879,,1227.731,61.0034,0.600819,60.0819,56.8293
1229.944,68.242,70.9606,,1229.944,106.866,114.308,,1229.944,63.8575,0.620784,62.0784,58.5944
1232.156,67.546,69.6474,,1232.156,99.241,108.599,,1232.156,68.0626,0.641328,64.1328,60.0718
1234.368,59.854,66.3261,,1234.368,90.436,101.027,,1234.368,66.1838,0.656521,65.6521,61.4617
1236.581,54.074,61.2077,,1236.581,87.178,95.8468,,1236.581,62.0271,0.638599,63.8599,62.6159
1238.793,50.116,56.5242,,1238.793,79.468,89.054,,1238.793,63.0644,0.634718,63.4718,63.4082
1241.006,52.344,53.6852,,1241.006,75.305,83.0192,,1241.006,69.5093,0.64666,64.666,64.0415
1242.586,54.388,53.4523,,1242.586,69.901,79.3938,,1242.586,77.8072,0.673255,67.3255,