File: public_html/data/backup/schreiberglass-Hell_Kupferblau_7881.csv
wavelength_nm,intensity,intensity_smoothed,,wavelength_nm2,intensity_i0,intensity_i0_smoothed,,wavelength_nm3,,transmission,transmission_perc,transmission_perc_smoothed
173.232,27.939,#N/A,,173.232,19.372,#N/A,,173.232,144.224,#N/A,#N/A,#N/A
175.084,32.135,28.7702,,175.084,33.69,22.9547,,175.084,95.3844,1.25335,125.335,#N/A
176.935,30.953,30.0605,,176.935,35.507,28.7339,,176.935,87.1744,1.04617,104.617,#N/A
178.787,37.225,31.858,,178.787,32.052,29.5431,,178.787,116.139,1.07836,107.836,#N/A
180.639,40.406,35.6673,,180.639,39.87,32.1451,,180.639,101.344,1.10957,110.957,#N/A
182.491,35.587,36.5909,,182.491,38.233,36.3785,,182.491,93.0793,1.00584,100.584,#N/A
184.342,32.858,35.223,,184.342,31.233,35.1993,,184.342,105.203,1.00067,100.067,106.78
186.194,33.858,34.5892,,186.194,35.141,34.1309,,186.194,96.349,1.01343,101.343,104.223
188.046,32.675,33.7573,,188.046,33.414,34.1736,,188.046,97.7884,0.987819,98.7819,103.229
189.897,33.947,33.339,,189.897,31.959,33.1214,,189.897,106.22,1.00657,100.657,101.314
191.749,32.946,32.3591,,191.749,30.958,32.8964,,191.749,106.422,0.983665,98.3665,99.9308
193.601,37.763,33.9115,,193.601,36.958,33.1093,,193.601,102.178,1.02423,102.423,100.27
195.453,38.126,35.5637,,195.453,35.139,34.5047,,195.453,108.501,1.03069,103.069,100.608
197.304,35.943,36.374,,197.304,32.684,33.3048,,197.304,109.971,1.09215,109.215,102.099
199.156,34.76,35.6079,,199.156,31.229,32.1767,,199.156,111.307,1.10664,110.664,104.288
201.008,29.305,34.0098,,201.008,33.41,32.5906,,201.008,87.7133,1.04354,104.354,105.713
202.86,30.304,31.3349,,202.86,33.046,32.9429,,202.86,91.7025,0.951188,95.1188,105.185
204.711,29.303,31.007,,204.711,35.046,34.2754,,204.711,83.613,0.904642,90.4642,103.192
206.563,33.666,30.9377,,206.563,39.227,35.2897,,206.563,85.8235,0.876676,87.6676,99.7955
208.415,38.392,33.8724,,208.415,44.135,39.2673,,208.415,86.9877,0.862612,86.2612,95.2568
210.267,31.391,33.7867,,210.267,38.771,40.755,,210.267,80.9652,0.829021,82.9021,90.4062
212.118,32.481,32.4985,,212.118,35.953,39.9513,,212.118,90.3429,0.813453,81.3453,86.9094
213.97,34.026,34.0114,,213.97,35.043,37.0852,,213.97,97.0979,0.917116,91.7116,85.9028
215.822,31.025,33.3479,,215.822,34.588,36.235,,215.822,89.6987,0.920321,92.0321,86.7098
217.673,34.569,32.9016,,217.673,38.315,36.4701,,217.673,90.2232,0.902155,90.2155,87.4408
219.525,35.841,34.71,,219.525,36.314,37.2076,,219.525,98.6975,0.932874,93.2874,88.7256
221.377,31.568,34.7063,,221.377,33.314,35.1484,,221.377,94.759,0.987421,98.7421,91.6415
223.229,31.93,32.413,,223.229,30.586,34.7675,,223.229,104.394,0.932281,93.2281,93.457
225.08,36.111,32.8926,,225.08,30.312,31.8506,,225.08,119.131,1.03271,103.271,94.8653
226.932,38.746,34.9094,,226.932,40.857,34.2874,,226.932,94.8332,1.01814,101.814,97.3051
228.784,36.473,35.2756,,228.784,39.039,37.7254,,228.784,93.4271,0.935062,93.5062,98.2991
230.636,39.472,36.3802,,230.636,38.674,39.4259,,230.636,102.063,0.922749,92.2749,97.736
232.487,33.289,36.3901,,232.487,34.674,37.3684,,232.487,96.0057,0.97382,97.382,97.7353
234.339,39.288,35.8265,,234.339,39.219,37.2061,,234.339,100.176,0.96292,96.292,97.5615
236.191,42.923,39.2285,,236.191,38.855,38.0541,,236.191,110.47,1.03086,103.086,96.6711
238.043,38.377,40.1631,,238.043,42.854,39.816,,238.043,89.5529,1.00872,100.872,97.4677
239.894,41.558,39.8428,,239.894,50.49,43.6746,,239.894,82.3094,0.912265,91.2265,97.5963
241.746,40.829,41.2716,,241.746,58.489,49.6724,,241.746,69.8063,0.830876,83.0876,95.7495
243.598,47.465,42.663,,243.598,58.307,54.5294,,243.598,81.4053,0.782386,78.2386,92.3917
245.449,51.282,46.6963,,245.449,61.124,56.9949,,245.449,83.8983,0.819306,81.9306,89.0671
247.301,54.372,50.4493,,247.301,64.488,60.3314,,247.301,84.3134,0.836202,83.6202,85.2834
249.153,56.462,53.5653,,249.153,70.123,63.8932,,249.153,80.5185,0.838357,83.8357,82.9467
251.005,56.824,54.7176,,251.005,74.577,68.4614,,251.005,76.1951,0.799247,79.9247,81.6375
252.856,59.732,56.5741,,252.856,75.668,72.1496,,252.856,78.9396,0.784122,78.4122,81.4076
254.681,54.368,56.1521,,254.681,82.758,75.8182,,254.681,65.6952,0.740615,74.0615,80.6918
256.513,62.73,56.6381,,256.513,84.939,79.6534,,256.513,73.853,0.711057,71.1057,78.5512
258.347,63.911,60.7818,,258.347,79.12,81.0065,,258.347,80.7773,0.750333,75.0333,76.581
260.181,61.455,62.2609,,260.181,79.574,78.8582,,260.181,77.23,0.78953,78.953,75.8326
262.017,62.363,61.818,,262.017,86.028,80.7691,,262.017,72.4915,0.765367,76.5367,75.5178
263.853,66.271,63.1462,,263.853,83.755,82.9695,,263.853,79.1248,0.761076,76.1076,75.2334
265.691,66.543,64.4846,,265.691,81.118,83.0698,,265.691,82.0323,0.776271,77.6271,76.1866
267.53,61.269,63.893,,267.53,83.208,82.7602,,267.53,73.6335,0.772026,77.2026,77.1719
269.369,57.541,61.0949,,269.369,83.662,83.0511,,269.369,68.7779,0.73563,73.563,76.7216
271.21,60.085,60.1579,,271.21,87.48,84.5473,,271.21,68.6843,0.71153,71.153,75.5069
273.052,63.175,61.5625,,273.052,81.934,85.4352,,273.052,77.1047,0.720575,72.0575,74.6848
274.895,58.628,60.7038,,274.895,78.478,82.5038,,274.895,74.7063,0.73577,73.577,74.0217
276.739,68.082,61.236,,276.739,82.66,80.8835,,276.739,82.3639,0.75709,75.709,73.4566
278.584,64.808,64.8456,,278.584,85.932,82.765,,278.584,75.4178,0.78349,78.349,73.8872
280.431,61.352,63.3942,,280.431,83.295,83.2018,,280.431,73.6563,0.761934,76.1934,74.6869
282.278,63.896,63.506,,282.278,85.294,83.2551,,282.278,74.9127,0.762788,76.2788,75.6217
284.126,62.35,62.589,,284.126,88.657,85.4949,,284.126,70.3272,0.732078,73.2078,75.8971
285.976,60.167,61.5057,,285.976,83.656,85.7767,,285.976,71.9219,0.717044,71.7044,75.4793
287.826,59.347,59.7304,,287.826,82.383,83.9464,,287.826,72.0379,0.711531,71.1531,74.3252
289.678,59.801,58.9814,,289.678,79.2,83.0632,,289.678,75.5063,0.710078,71.0078,73.1321
291.531,65.436,60.2833,,291.531,81.2,82.3258,,291.531,80.5862,0.732253,73.2253,72.4812
293.385,65.435,63.6774,,293.385,83.108,82.4176,,293.385,78.7349,0.772619,77.2619,72.6964
295.239,62.433,64.2928,,295.239,88.835,84.634,,295.239,70.2797,0.759657,75.9657,73.5294
297.095,64.341,64.0098,,297.095,81.652,85.6638,,297.095,78.799,0.747221,74.7221,74.1411
298.952,67.613,64.8363,,298.952,81.833,83.2325,,298.952,82.6231,0.778978,77.8978,75.2634
300.81,70.612,66.2597,,300.81,81.56,81.5078,,300.81,86.5768,0.812924,81.2924,76.8393
302.669,66.61,67.1114,,302.669,83.559,82.7159,,302.669,79.7161,0.811349,81.1349,78.0226
304.53,65.973,67.0113,,304.53,86.377,84.3667,,304.53,76.378,0.794286,79.4286,78.5231
306.391,56.426,63.8477,,306.391,81.558,85.6932,,306.391,69.1851,0.745073,74.5073,78.7401
308.253,56.243,60.1514,,308.253,77.193,82.5594,,308.253,72.8602,0.728584,72.8584,78.1847
310.117,59.423,59.4858,,310.117,80.284,80.8732,,310.117,74.016,0.735544,73.5544,77.0468
311.981,63.331,61.0693,,311.981,82.556,80.9298,,311.981,76.7128,0.754596,75.4596,75.739
313.847,65.784,62.6565,,313.847,87.373,81.8857,,313.847,75.291,0.76517,76.517,74.9565
315.713,62.329,63.2739,,315.713,91.463,85.5911,,315.713,68.1467,0.739258,73.9258,74.4743
317.581,65.6,63.9199,,317.581,90.19,88.5784,,317.581,72.7353,0.721619,72.1619,74.2668
319.45,63.326,64.3924,,319.45,89.644,89.3886,,319.45,70.6416,0.720365,72.0365,74.0527
321.319,63.325,63.3233,,321.319,82.188,88.1012,,321.319,77.049,0.718756,71.8756,73.5883
323.19,70.505,65.1957,,323.19,84.46,86.0177,,323.19,83.4774,0.757934,75.7934,73.2955
325.062,62.322,66.3726,,325.062,83.46,85.5423,,325.062,74.6729,0.775904,77.5904,73.6351
326.935,64.775,64.796,,326.935,85.55,84.6431,,326.935,75.716,0.76552,76.552,74.4051
328.809,64.41,64.3095,,328.809,90.003,86.1662,,328.809,71.5643,0.746342,74.6342,75.0178
330.685,69.954,65.0352,,330.685,84.73,86.5262,,330.685,82.5611,0.751624,75.1624,75.5638
332.561,68.862,68.1871,,332.561,84.275,85.7221,,332.561,81.7111,0.795444,79.5444,76.5248
334.438,66.315,68.6366,,334.438,84.547,85.1362,,334.438,78.4357,0.806198,80.6198,77.1693
336.316,68.132,68.2991,,336.316,86.728,85.1043,,336.316,78.5583,0.802534,80.2534,77.7791
338.196,67.949,67.9732,,338.196,87.454,86.1917,,338.196,77.6968,0.788629,78.8629,78.4553
340.076,70.129,67.3618,,340.076,87.272,86.6237,,340.076,80.3568,0.777637,77.7637,79.1462
341.958,75.673,70.0981,,341.958,89.18,87.7807,,341.958,84.8542,0.798559,79.8559,79.539
343.84,75.217,73.4125,,343.84,90.543,88.5763,,343.84,83.0732,0.828805,82.8805,79.8998
345.724,72.852,73.3255,,345.724,91.815,89.3781,,345.724,79.3465,0.820397,82.0397,80.2905
347.609,69.492,72.3762,,347.609,89.459,89.3094,,347.609,77.6803,0.810399,81.0399,80.5288
349.495,66.394,70.1026,,349.495,93.627,89.9856,,349.495,70.9133,0.779042,77.9042,80.6664
351.382,77.843,72.1336,,351.382,88.843,90.5661,,351.382,87.6186,0.796475,79.6475,80.5976
353.269,74.944,74.6372,,353.269,93.573,90.4043,,353.269,80.0915,0.825593,82.5593,80.7247
355.158,80.835,76.1803,,355.158,96.749,92.356,,355.158,83.5513,0.824856,82.4856,80.6182
357.048,77.831,78.1303,,357.048,99.65,95.0671,,357.048,78.1044,0.821844,82.1844,80.8653
358.94,78.566,77.2676,,358.94,98.941,97.5787,,358.94,79.4069,0.791849,79.1849,80.8678
360.832,88.14,79.4733,,360.832,101.901,98.6542,,360.832,86.4957,0.805575,80.5575,81.3256
362.725,91.593,84.0759,,362.725,105.458,101.011,,362.725,86.8526,0.832347,83.2347,81.5426
364.619,96.534,89.1761,,364.619,101.394,103.29,,364.619,95.2068,0.863352,86.3352,82.1421
366.515,87.783,90.8967,,366.515,105.344,103.188,,366.515,83.3299,0.880883,88.0883,83.1361
368.411,84.009,86.7428,,368.411,107.973,105.209,,368.411,77.8056,0.824482,82.4482,83.8046
370.308,89.059,85.1144,,370.308,107.574,106.432,,370.308,82.7886,0.799707,79.9707,83.948
372.207,92.671,87.1605,,372.207,109.207,108.154,,372.207,84.8581,0.805891,80.5891,83.6765
374.107,92.246,89.8231,,374.107,105.746,107.353,,374.107,87.2336,0.836708,83.6708,83.3914
376.007,101.709,93.3131,,376.007,116.159,108.759,,376.007,87.5602,0.857978,85.7978,82.9117
377.909,103.063,98.3485,,377.909,120.542,113.575,,377.909,85.4997,0.865931,86.5931,83.011
379.812,105.281,100.826,,379.812,118.467,116.59,,379.812,88.8695,0.86479,86.479,84.0029
381.716,97.665,100.787,,381.716,114.164,116.666,,381.716,85.548,0.863895,86.3895,85.1979
383.62,102.655,100.275,,383.62,117.663,117.335,,383.62,87.2449,0.8546,85.46,85.8769
385.526,111.197,104.037,,385.526,126.349,119.584,,385.526,88.0078,0.86999,86.999,86.2525
387.433,115.321,109.024,,387.433,123.393,123.038,,387.433,93.4583,0.886102,88.6102,86.5765
389.341,116.756,111.949,,389.341,126.559,123.366,,389.341,92.2542,0.907457,90.7457,87.3549
391.25,129.738,117.248,,391.25,135.632,127.709,,391.25,95.6544,0.918087,91.8087,88.279
393.161,142.143,126.473,,393.161,147.268,133.945,,393.161,96.52,0.944217,94.4217,89.79
395.072,163.699,139.572,,395.072,168.081,146.483,,395.072,97.3929,0.952825,95.2825,91.4582
396.984,197.581,159.228,,396.984,196.506,164.926,,396.984,100.547,0.965451,96.5451,93.1036
398.897,241.224,188.7,,398.897,244.17,193.507,,398.897,98.7935,0.975157,97.5157,94.5444
400.812,308.755,231.642,,400.812,307.693,235.647,,400.812,100.345,0.983004,98.3004,95.8337
402.727,399.271,292.781,,402.727,400.782,295.019,,402.727,99.623,0.992413,99.2413,96.9546
404.644,542.383,382.537,,404.644,535.775,382.114,,404.644,101.233,1.00111,100.111,97.8981
406.561,745.27,513.287,,406.561,730.803,509.205,,406.561,101.98,1.00802,100.802,98.8341
408.48,1049.418,708.225,,408.48,1021.145,694.926,,408.48,102.769,1.01914,101.914,99.6838
410.4,1481.233,989.249,,410.4,1452.911,968.406,,410.4,101.949,1.02152,102.152,100.521
412.32,2108.398,1397.84,,412.32,2070.227,1369.03,,412.32,101.844,1.02105,102.105,101.151
414.242,2978.381,1975.95,,414.242,2939.2,1943.03,,414.242,101.333,1.01694,101.694,101.59
416.165,4173.596,2787.19,,416.165,4112.633,2746.6,,416.165,101.482,1.01478,101.478,101.798
418.089,5760.414,3895.16,,418.089,5705.194,3845.15,,418.089,100.968,1.01301,101.301,101.813
420.014,7867.204,5382.66,,420.014,7809.094,5328.01,,420.014,100.744,1.01026,101.026,101.619
421.939,10538.428,7331.05,,421.939,10487.644,7275.23,,421.939,100.484,1.00767,100.767,101.377
423.866,13822.804,9812.33,,423.866,13764.393,9756.34,,423.866,100.424,1.00574,100.574,101.126
425.795,17707.682,12866.4,,425.795,17656.791,12809.7,,425.795,100.288,1.00443,100.443,100.916
427.724,22202.609,16513.9,,427.724,22181.078,16466.7,,427.724,100.097,1.00287,100.287,100.707
429.654,27324.066,20757.7,,429.654,27351.265,20737,,429.654,99.9006,1.001,100.1,100.513
431.585,33154.257,25640.2,,431.585,33285.158,25669.4,,431.585,99.6067,0.998862,99.8862,100.332
433.517,39640.151,31183.3,,433.517,39884.594,31296.3,,433.517,99.3871,0.996388,99.6388,100.149
435.451,46766.952,37385.8,,435.451,47143.109,37597.2,,435.451,99.2021,0.994375,99.4375,99.9559
437.385,53978.658,44140.5,,437.385,54434.033,44457.5,,437.385,99.1634,0.99287,99.287,99.7566
439.32,59827.472,50869.2,,439.32,60243.57,51246.6,,439.32,99.3093,0.992636,99.2636,99.5775
441.257,62797.527,56451,,441.257,63057.251,56809.8,,441.257,99.5881,0.993685,99.3685,99.4477
443.194,62849.042,59878.8,,443.194,62937.998,60139.8,,443.194,99.8587,0.99566,99.566,99.3958
445.133,61203.376,61070.1,,445.133,61193.827,61214.9,,445.133,100.016,0.997634,99.7634,99.4257
447.072,57656.585,60362.7,,447.072,57512.632,60395.7,,447.072,100.25,0.999453,99.9453,99.5253
449.013,50937.672,57375.4,,449.013,50613.182,57272.4,,449.013,100.641,1.0018,100.18,99.6849
450.955,42437.823,51866.1,,450.955,41975.067,51614.2,,450.955,101.102,1.00488,100.488,99.8927
452.897,34525.887,44873,,452.897,34059.554,44507.7,,452.897,101.369,1.00821,100.821,100.135
454.841,28094.784,37764.8,,454.841,27745.913,37380.7,,454.841,101.257,1.01028,101.028,100.386
456.786,23201.258,31408.4,,456.786,22921.571,31061.9,,456.786,101.22,1.01115,101.115,100.624
458.732,19469.288,26133.5,,458.732,19248.14,25831.9,,458.732,101.149,1.01167,101.167,100.835
460.679,16455.794,21865.7,,460.679,16354.743,21633,,460.679,100.618,1.01076,101.076,100.989
462.627,13920.028,18377.9,,462.627,13872.676,18231.7,,462.627,100.341,1.00802,100.802,101.036
464.576,11762.36,15489.1,,464.576,11728.808,15397.6,,464.576,100.286,1.00594,100.594,100.983
466.526,9942.066,13066.2,,466.526,9934.298,13011.9,,466.526,100.078,1.00418,100.418,100.87
468.477,8466.336,11045.4,,468.477,8502.236,11025.8,,468.477,99.5778,1.00178,100.178,100.701
470.429,7297.508,9388.89,,470.429,7363.688,9405.6,,470.429,99.1013,0.998224,99.8224,100.47
472.382,6383.754,8054.45,,472.382,6502.234,8109.32,,472.382,98.1779,0.993234,99.3234,100.19
474.336,5700.361,7000.29,,474.336,5844.546,7096.97,,474.336,97.533,0.986378,98.6378,99.8355
476.292,5198.835,6188,,476.292,5343.422,6310.11,,476.292,97.2941,0.980649,98.0649,99.3993
478.248,4787.374,5563.84,,478.248,4960.583,5704.02,,478.248,96.5083,0.975425,97.5425,98.9027
480.205,4462.214,5070.52,,480.205,4673.005,5237.81,,480.205,95.4892,0.968061,96.8061,98.3364
482.164,4250.8,4694.73,,482.164,4481.539,4889.84,,482.164,94.8513,0.9601,96.01,97.6931
484.123,4111.611,4423.3,,484.123,4395.281,4648.59,,484.123,93.546,0.951536,95.1536,97.0098
486.083,4098.106,4249.69,,486.083,4432.828,4520.15,,486.083,92.449,0.940166,94.0166,96.2468
488.045,4215.877,4194.16,,488.045,4610.368,4514.47,,488.045,91.4434,0.929049,92.9049,95.3706
490.007,4450.681,4259.49,,490.007,4925.802,4639.4,,490.007,90.3544,0.918111,91.8111,94.4012
491.971,4775.966,4438.22,,491.971,5378.403,4897.99,,491.971,88.799,0.906131,90.6131,93.3651
493.936,5199.993,4719.22,,493.936,5936.261,5285.32,,493.936,87.5971,0.892892,89.2892,92.2295
495.901,5706.783,5096.3,,495.901,6601.205,5789.11,,495.901,86.4506,0.880325,88.0325,91.0396
497.868,6298.871,5563.97,,497.868,7369.365,6403.65,,497.868,85.4737,0.868874,86.8874,89.8395
499.836,6928.209,6105.75,,499.836,8224.39,7121.8,,499.836,84.2398,0.857333,85.7333,88.633
501.804,7562.475,6691.58,,501.804,9125.372,7925.1,,501.804,82.8731,0.844352,84.4352,87.4007
503.774,8239.499,7317.37,,503.774,10055.42,8786.79,,503.774,81.9409,0.832769,83.2769,86.1819
505.745,8858.017,7958.73,,505.745,11001.973,9692.89,,505.745,80.513,0.82109,82.109,84.9941
507.717,9446.695,8575.95,,507.717,11935.339,10610.4,,507.717,79.1489,0.808259,80.8259,83.799
509.69,10029.963,9178.25,,509.69,12884.921,11544.4,,509.69,77.8426,0.795038,79.5038,82.5682
511.664,10572.843,9763.47,,511.664,13774.941,12472.2,,511.664,76.7542,0.78282,78.282,81.3278
513.639,11047.024,10310.8,,513.639,14632.225,13374,,513.639,75.4979,0.77096,77.096,80.1005
515.615,11416.372,10795.7,,515.615,15392.368,14228.9,,515.615,74.169,0.758718,75.8718,78.8575
517.592,11700.284,11194.3,,517.592,16059.305,15008.3,,517.592,72.8567,0.745875,74.5875,77.6067
519.57,11941.137,11519.8,,519.57,16675.782,15717.7,,519.57,71.6077,0.732916,73.2916,76.3575
521.549,12078.532,11777.2,,521.549,17207.023,16358.4,,521.549,70.1954,0.719949,71.9949,75.1088
523.529,12142.348,11950.5,,523.529,17655.578,16920.3,,523.529,68.7734,0.706282,70.6282,73.8302
525.51,12163.947,12056.6,,525.51,18014.552,17401.4,,525.51,67.5229,0.692853,69.2853,72.5231
527.493,12119.606,12102.7,,527.493,18306.536,17801.1,,527.493,66.2037,0.679885,67.9885,71.2065
529.476,12042.363,12095.6,,529.476,18493.465,18119.2,,529.476,65.1169,0.66756,66.756,69.8955
531.46,11878.146,12029.4,,531.46,18579.761,18340.9,,531.46,63.9306,0.655878,65.5878,68.6046
533.446,11691.221,11902.2,,533.446,18621.056,18478.8,,533.446,62.785,0.644099,64.4099,67.3433
535.432,11521.712,11752.1,,535.432,18656.156,18564,,535.432,61.7582,0.633055,63.3055,66.126
537.419,11341.308,11589.1,,537.419,18589.524,18595.8,,537.419,61.0091,0.623213,62.3213,64.9635
539.408,11129.237,11407.9,,539.408,18555.23,18585.3,,539.408,59.979,0.613813,61.3813,63.8665
541.397,10927.338,11209.8,,541.397,18474.988,18555.5,,541.397,59.1467,0.604127,60.4127,62.8124
543.388,10735.528,11013.1,,543.388,18355.046,18478.9,,543.388,58.4882,0.595984,59.5984,61.8172
545.379,10534.655,10815.7,,545.379,18248.544,18389.5,,545.379,57.7287,0.588145,58.8145,60.8915
547.372,10320.832,10615.5,,547.372,18138.685,18289,,547.372,56.8996,0.580429,58.0429,60.0208
549.365,10088.275,10402.6,,549.365,18001.624,18180.9,,549.365,56.0409,0.572171,57.2171,59.176
551.36,9864.354,10185.9,,551.36,17827.735,18043.2,,551.36,55.3315,0.564531,56.4531,58.3643
553.356,9564.74,9943.04,,553.356,17631.285,17879.9,,553.356,54.2487,0.556102,55.6102,57.5719
555.352,9286.029,9673.9,,555.352,17438.845,17704,,555.352,53.2491,0.546426,54.6426,56.7506
557.35,8959.778,9393.02,,557.35,17194.424,17508.3,,557.35,52.1086,0.536491,53.6491,55.8896
559.349,8616.232,9078.55,,559.349,16964.953,17284.3,,559.349,50.7884,0.525249,52.5249,54.9739
561.348,8267.177,8749.25,,561.348,16724.541,17056.8,,561.348,49.4314,0.512949,51.2949,53.9834
563.349,7895.317,8403.69,,563.349,16486.156,16821.8,,563.349,47.8906,0.499571,49.9571,52.8934
565.351,7507.473,8041.4,,565.351,16210.355,16578.2,,565.351,46.3128,0.485058,48.5058,51.7067
567.354,7121.061,7664.05,,567.354,15947.232,16321.1,,567.354,44.6539,0.46958,46.958,50.4169
569.358,6737.655,7284,,569.358,15647.003,16051.9,,569.358,43.0604,0.453778,45.3778,49.0268
571.363,6324.793,6892.55,,571.363,15345.241,15765.6,,571.363,41.2166,0.437189,43.7189,47.5511
573.368,5952.312,6499.34,,573.368,15002.594,15459.4,,573.368,39.6752,0.420413,42.0413,45.9965
575.375,5596.665,6123.6,,575.375,14677.251,15137.4,,575.375,38.1316,0.404536,40.4536,44.4004
577.383,5223.466,5752.3,,577.383,14388.348,14825.5,,577.383,36.3034,0.388,38.8,42.7796
579.392,4881.552,5387.81,,579.392,14080.889,14521.4,,579.392,34.6679,0.371026,37.1026,41.1346
581.402,4534.777,5036.82,,581.402,13725.902,14199,,581.402,33.0381,0.354731,35.4731,39.4804
583.413,4203.922,4688.81,,583.413,13385.451,13863.4,,583.413,31.4067,0.338215,33.8215,37.8343
585.425,3921.67,4363.9,,585.425,13055.171,13529.6,,585.425,30.0392,0.322544,32.2544,36.1945
587.439,3654.389,4064.86,,587.439,12719.47,13200.2,,587.439,28.7307,0.307939,30.7939,34.5763
589.453,3414.958,3787.05,,589.453,12355.016,12856.6,,589.453,27.6403,0.294561,29.4561,33.017
591.468,3201.458,3535.89,,591.468,12020.007,12510.8,,591.468,26.6344,0.282628,28.2628,31.5409
593.484,2999.933,3309.74,,593.484,11629.292,12156.6,,593.484,25.7964,0.27226,27.226,30.1696
595.501,2805.933,3097.92,,595.501,11274.682,11787.3,,595.501,24.887,0.262818,26.2818,28.924
597.519,2635.014,2898.87,,597.519,10930.996,11434.4,,597.519,24.1059,0.253523,25.3523,27.7877
599.539,2477.58,2722.03,,599.539,10548.047,11075.8,,599.539,23.4885,0.245764,24.5764,26.7631
601.559,2313.636,2552.46,,601.559,10176.811,10704.1,,601.559,22.7344,0.238457,23.8457,25.8394
603.58,2166.276,2390.51,,603.58,9808.491,10337.4,,603.58,22.0857,0.231248,23.1248,24.9917
605.602,2023.177,2237.32,,605.602,9418.219,9963.64,,605.602,21.4815,0.224549,22.4549,24.2016
607.626,1882.907,2089.53,,607.626,9057.409,9587.64,,607.626,20.7886,0.21794,21.794,23.4653
609.65,1756.574,1948.71,,609.65,8698.072,9220.02,,609.65,20.195,0.211356,21.1356,22.7674
611.675,1641.836,1817.61,,611.675,8328.233,8854.71,,611.675,19.7141,0.205271,20.5271,22.0921
613.702,1530.209,1695.93,,613.702,7979.385,8490.38,,613.702,19.177,0.199747,19.9747,21.4489
615.729,1416.319,1579.92,,615.729,7646.662,8140.66,,615.729,18.5221,0.194078,19.4078,20.8319
617.757,1308.347,1466.51,,617.757,7328.948,7802.55,,617.757,17.8518,0.187953,18.7953,20.2263
619.787,1211.161,1358.08,,619.787,7025.484,7482.23,,619.787,17.2395,0.181508,18.1508,19.6258
621.817,1126.524,1258.79,,621.817,6663.205,7153.51,,621.817,16.9066,0.175969,17.5969,19.0353
623.849,1044.091,1168.4,,623.849,6369.927,6819.25,,623.849,16.3909,0.171339,17.1339,18.4643
625.881,954.665,1079.72,,625.881,6094.137,6517.8,,625.881,15.6653,0.165657,16.5657,17.8974
627.915,874.837,993.135,,627.915,5795.847,6222.34,,627.915,15.0942,0.159608,15.9608,17.327
629.949,801.4,913.309,,629.949,5497.842,5923.01,,629.949,14.5766,0.154197,15.4197,16.7694
631.985,742.443,839.928,,631.985,5232.336,5631.12,,631.985,14.1895,0.149158,14.9158,16.2306
634.021,689.689,775.921,,634.021,4994.07,5361.63,,634.021,13.8102,0.144717,14.4717,15.699
636.059,637.157,717.998,,636.059,4766.117,5113.6,,636.059,13.3685,0.140409,14.0409,15.1804
638.098,582.385,661.788,,638.098,4517.577,4868.13,,638.098,12.8915,0.135943,13.5943,14.6918
640.137,542.032,608.718,,640.137,4288.097,4626.12,,640.137,12.6404,0.131583,13.1583,14.2281
642.178,505.447,564.077,,642.178,4068.039,4392.94,,642.178,12.4248,0.128405,12.8405,13.7988
644.219,467.817,523.863,,644.219,3855.442,4169.94,,644.219,12.1339,0.125628,12.5628,13.4059
646.262,436.243,486.738,,646.262,3658.495,3957.4,,646.262,11.9241,0.122994,12.2994,13.0441
648.306,406.95,452.858,,648.306,3464.138,3752.83,,648.306,11.7475,0.120671,12.0671,12.7183
650.35,380.83,422.195,,650.35,3273.988,3551.52,,650.35,11.632,0.118877,11.8877,12.4412
652.396,361.102,395.651,,652.396,3100.836,3361.83,,652.396,11.6453,0.117689,11.7689,12.21
654.443,333.476,369.646,,654.443,2921.358,3180.81,,654.443,11.4151,0.116211,11.6211,12.0104
656.49,317.152,346.088,,656.49,2753.059,3000.92,,656.49,11.52,0.115327,11.5327,11.8405
658.539,298.48,326.829,,658.539,2599.362,2830.31,,658.539,11.4828,0.115475,11.5475,11.7174
660.589,278.617,306.334,,660.589,2455.779,2672.75,,660.589,11.3454,0.114614,11.4614,11.6241
662.64,264.69,288.115,,662.64,2312.357,2524.22,,662.64,11.4468,0.11414,11.414,11.547
664.691,248.114,271.51,,664.691,2173.615,2378.41,,664.691,11.4148,0.114156,11.4156,11.4917
666.744,231.37,254.645,,666.744,2040.62,2237,,666.744,11.3382,0.113833,11.3833,11.4578
668.798,223.961,239.621,,668.798,1920.246,2104.74,,668.798,11.6631,0.113849,11.3849,11.4258
670.853,210.445,228.493,,670.853,1803.858,1979.23,,670.853,11.6664,0.115445,11.5445,11.4248
672.909,197.973,215.71,,672.909,1709.54,1863.79,,672.909,11.5805,0.115737,11.5737,11.4532
674.965,191.732,204.926,,674.965,1606.44,1757.95,,674.965,11.9352,0.116571,11.6571,11.4925
677.023,189.663,197.721,,677.023,1511.369,1653.16,,677.023,12.5491,0.119601,11.9601,11.5784
679.082,177.671,190.548,,679.082,1424.436,1557.02,,679.082,12.4731,0.12238,12.238,11.7307
681.142,171.369,182.544,,681.142,1322.742,1461.36,,681.142,12.9556,0.124913,12.4913,11.9065
683.203,166.101,175.386,,683.203,1254.116,1371.04,,683.203,13.2445,0.127921,12.7921,12.1191
685.265,160.629,168.831,,685.265,1179.629,1292.23,,685.265,13.6169,0.13065,13.065,12.3768
687.327,156.182,162.661,,687.327,1104.938,1213.33,,687.327,14.1349,0.134061,13.4061,12.6666
689.391,154.441,158.847,,689.391,1043.367,1141.15,,689.391,14.8022,0.139199,13.9199,12.9811
691.456,141.385,153.273,,691.456,979.101,1073.44,,691.456,14.4403,0.142787,14.2787,13.3396
693.522,139.679,145.186,,693.522,920.032,1009.65,,693.522,15.182,0.143797,14.3797,13.6649
695.589,135.043,140.932,,695.589,866.953,948.17,,695.589,15.5767,0.148636,14.8636,14.0115
697.657,127.935,134.098,,697.657,814.832,891.84,,697.657,15.7008,0.150361,15.0361,14.3538
699.726,126.82,129.822,,699.726,764.473,838.303,,699.726,16.5892,0.154862,15.4862,14.6796
701.796,124.861,127.472,,701.796,726.592,789.986,,701.796,17.1845,0.161359,16.1359,15.029
703.867,120.518,124.823,,703.867,677.987,744.417,,703.867,17.7759,0.167678,16.7678,15.4638
705.939,113.362,120.76,,705.939,647.077,701.379,,705.939,17.5191,0.172175,17.2175,15.9454
708.012,112.094,116.429,,708.012,604.308,662.696,,708.012,18.5492,0.17569,17.569,16.4146
710.085,105.429,112.376,,710.085,570.329,623.725,,710.085,18.4856,0.180169,18.0169,16.9309
712.16,100.028,106.766,,712.16,539.844,588.761,,712.16,18.5291,0.18134,18.134,17.3742
714.236,104.833,103.984,,714.236,511.659,556.524,,714.236,20.4888,0.186845,18.6845,17.7675
716.313,106.842,105.417,,716.313,478.551,526.21,,716.313,22.3261,0.200333,20.0333,18.2644
718.391,97.089,103.914,,718.391,452.734,495.41,,718.391,21.445,0.209753,20.9753,18.919
720.47,91.573,98.7068,,720.47,418.83,464.811,,720.47,21.864,0.212359,21.2359,19.5511
722.55,92.824,95.6144,,722.55,391.589,433.196,,722.55,23.7044,0.220719,22.0719,20.2402
724.631,90.766,93.4109,,724.631,374.361,406.446,,724.631,24.2456,0.229824,22.9824,21.0728
726.713,92.29,92.2254,,726.713,354.602,384.824,,726.713,26.0264,0.239656,23.9656,21.9069
728.796,88.319,91.0314,,728.796,341.466,365.659,,728.796,25.8647,0.248952,24.8952,22.6911
730.88,85.927,89.6227,,730.88,327.674,349.482,,730.88,26.2233,0.256445,25.6445,23.5195
732.965,78.584,85.9641,,732.965,310.396,333.134,,732.965,25.3173,0.258046,25.8046,24.3382
735.051,83.106,83.5668,,735.051,297.457,317.468,,735.051,27.9388,0.263229,26.3229,25.0213
737.138,87.974,85.2008,,737.138,281.755,303.655,,737.138,31.2236,0.280584,28.0584,25.8081
739.226,81.662,84.7573,,739.226,272.333,289.817,,739.226,29.9861,0.292451,29.2451,26.6849
741.315,80.845,82.4679,,741.315,265.377,279.963,,741.315,30.4642,0.294567,29.4567,27.4703
743.405,83.723,82.9518,,743.405,255.419,269.041,,743.405,32.7787,0.308325,30.8325,28.3375
745.496,89.787,84.233,,745.496,249.917,259.515,,745.496,35.9267,0.324579,32.4579,29.485
747.588,87.176,86.4445,,747.588,236.862,251.014,,747.588,36.8046,0.344381,34.4381,30.7976
749.681,79.407,84.2896,,749.681,227.883,241.189,,749.681,34.8455,0.349475,34.9475,31.9603
751.775,85.922,83.0799,,751.775,220.625,232.002,,751.775,38.9448,0.3581,35.81,33.1313
753.87,86.491,84.2596,,753.87,216.843,224.531,,753.87,39.8865,0.375269,37.5269,34.4685
755.966,89.583,86.375,,755.966,208.966,217.996,,755.966,42.8697,0.396223,39.6223,35.8903
758.063,87.287,87.5936,,758.063,195.128,209.832,,758.063,44.7332,0.417447,41.7447,37.3697
760.161,87.397,87.0168,,760.161,183.156,199.423,,760.161,47.7172,0.436343,43.6343,38.9263
762.26,86.618,86.5746,,762.26,171.56,187.901,,762.26,50.4885,0.460746,46.0746,40.8497
764.36,89.451,86.6818,,764.36,174.316,179.93,,764.36,51.3154,0.481751,48.1751,42.9419
766.461,87.099,88.3883,,766.461,174.35,176.433,,766.461,49.9564,0.500974,50.0974,45.0651
768.562,82.071,86.0968,,768.562,175.116,175.376,,768.562,46.8666,0.490926,49.0926,46.756
770.665,83.5,84.4594,,770.665,174.177,175.286,,770.665,47.9397,0.481839,48.1839,47.8613
772.769,85.802,84.5722,,772.769,166.977,172.477,,772.769,51.3855,0.490339,49.0339,48.6215
774.874,82.789,84.72,,774.874,158.966,167.045,,774.874,52.0797,0.50717,50.717,49.2339
776.98,84.429,83.5338,,776.98,155.872,161.839,,776.98,54.1656,0.516154,51.6154,49.6626
779.087,85.027,83.2805,,779.087,156.805,158.42,,779.087,54.2247,0.525695,52.5695,50.1469
781.195,88.826,85.2596,,781.195,156.194,157.349,,781.195,56.869,0.541848,54.1848,51.1231
783.304,81.902,85.6015,,783.304,147.827,153.492,,783.304,55.404,0.557694,55.7694,52.4625
785.414,86.042,83.738,,785.414,144.526,149.549,,785.414,59.5339,0.559936,55.9936,53.6133
787.525,84.581,85.2645,,787.525,139.035,145.191,,787.525,60.8343,0.587257,58.7257,54.9097
789.637,70.847,80.99,,789.637,139.446,141.858,,789.637,50.806,0.570922,57.0922,56.0279
791.749,82.525,78.6706,,791.749,141.085,142.088,,791.749,58.4931,0.553677,55.3677,56.4497
793.863,84.922,82.4689,,793.863,132.96,139.848,,793.863,63.8703,0.589702,58.9702,56.9861
795.978,75.503,80.7783,,795.978,133.657,136.672,,795.978,56.4901,0.591038,59.1038,57.7
798.094,77.222,77.1264,,798.094,128.597,134.167,,798.094,60.0496,0.574854,57.4854,57.8366
800.211,78.705,76.4183,,800.211,125.54,130.027,,800.211,62.6932,0.587711,58.7711,57.8074
802.329,80.851,77.5967,,802.329,125.322,126.527,,802.329,64.5146,0.61328,61.328,58.707
804.448,81.476,79.6323,,804.448,126.564,125.502,,804.448,64.3753,0.63451,63.451,59.8547
806.567,79.206,79.9008,,806.567,127.1,126.252,,806.567,62.3179,0.632868,63.2868,60.5668
808.688,82.462,79.7638,,808.688,125.336,125.674,,808.688,65.7927,0.634687,63.4687,61.5067
810.81,78.94,79.3086,,810.81,128.377,125.906,,810.81,61.4908,0.629901,62.9901,62.4911
812.933,85.354,80.7548,,812.933,128.684,127.414,,812.933,66.3284,0.633799,63.3799,63.0947
815.057,88.425,84.1133,,815.057,131.63,128.308,,815.057,67.1769,0.655559,65.5559,63.6117
817.181,89.308,86.1952,,817.181,134.057,130.993,,817.181,66.6194,0.658015,65.8015,64.0641
819.307,103.616,91.3073,,819.307,134.203,132.623,,819.307,77.2084,0.688475,68.8475,64.9204
821.434,106.9,99.6263,,821.434,138.133,134.892,,821.434,77.3892,0.738566,73.8566,66.6405
823.562,111.458,103.48,,823.562,145.596,138.069,,823.562,76.5529,0.749475,74.9475,68.8703
825.69,121.244,110.983,,825.69,157.121,145.507,,825.69,77.166,0.762735,76.2735,71.0398
827.82,129.907,119.322,,827.82,168.83,154.695,,827.82,76.9454,0.771336,77.1336,73.1508
829.951,143.064,129.669,,829.951,187.22,166.443,,829.951,76.4149,0.779062,77.9062,75.232
832.082,149.857,138.661,,832.082,198.489,179.92,,832.082,75.4989,0.770685,77.0685,76.3654
834.215,152.786,145.775,,834.215,201.865,189.843,,834.215,75.6872,0.767872,76.7872,76.815
836.349,160.751,150.397,,836.349,207.147,196.953,,836.349,77.6024,0.76362,76.362,76.9657
838.483,185.196,161.355,,838.483,222.062,205.189,,838.483,83.3983,0.786373,78.6373,77.1899
840.619,226.851,183.331,,840.619,263.204,223.758,,840.619,86.1883,0.819329,81.9329,77.8417
842.755,277.289,219.07,,842.755,318.202,257.623,,842.755,87.1424,0.850352,85.0352,79.1296
844.893,329.691,261.791,,844.893,387.235,307.147,,844.893,85.1398,0.852331,85.2331,80.7461
847.032,398.444,314.526,,847.032,466.216,368.742,,847.032,85.4634,0.852972,85.2972,82.4045
849.171,470.079,376.49,,849.171,539.76,438.841,,849.171,87.0904,0.857919,85.7919,84.0059
851.312,539.821,442.692,,851.312,610.079,508.559,,851.312,88.4838,0.870484,87.0484,85.2645
853.453,614.103,512.93,,853.453,689.743,581.82,,853.453,89.0336,0.881596,88.1596,86.1097
855.596,674.704,581.705,,855.596,759.16,656.437,,855.596,88.8751,0.886155,88.6155,86.7193
857.739,717.271,641.668,,857.739,812.332,725.108,,857.739,88.2978,0.884928,88.4928,87.3468
859.884,765.564,693.589,,859.884,862.41,785.218,,859.884,88.7703,0.883308,88.3308,87.8929
862.029,797.664,739.762,,862.029,898.871,836.763,,862.029,88.7407,0.884076,88.4076,88.2906
864.175,821.95,775.407,,864.175,922.193,874.941,,864.175,89.1299,0.886239,88.6239,88.4758
866.323,847.68,806.882,,866.323,948.126,906.049,,866.323,89.4058,0.89055,89.055,88.5683
868.471,878.439,835.624,,868.471,980.672,936.191,,868.471,89.5752,0.892578,89.2578,88.6845
870.621,922.28,868.974,,870.621,1024.768,969.541,,870.621,89.9989,0.896274,89.6274,88.8927
872.771,980.116,911.187,,872.771,1083.951,1012.27,,872.771,90.4207,0.900144,90.0144,89.1745
874.922,1042.921,963.589,,874.922,1160.046,1067.67,,874.922,89.9034,0.902514,90.2514,89.4959
877.075,1112.469,1022.41,,877.075,1245.479,1136.88,,877.075,89.3206,0.899317,89.9317,89.7297
879.228,1192.472,1088.88,,879.228,1335.583,1215.24,,879.228,89.2848,0.896022,89.6022,89.8306
881.382,1284.76,1166.35,,881.382,1432.739,1301.79,,881.382,89.6716,0.895957,89.5957,89.8648
883.537,1367.613,1249.48,,883.537,1518.439,1391.7,,883.537,90.067,0.897806,89.7806,89.8537
885.694,1434.814,1328.48,,885.694,1584.213,1475.52,,885.694,90.5695,0.90035,90.035,89.8172
887.851,1490.197,1398.43,,887.851,1636.196,1547.2,,887.851,91.0769,0.90385,90.385,89.8427
890.009,1506.265,1451.94,,890.009,1657.704,1600.32,,890.009,90.8645,0.907286,90.7286,90.008
892.168,1506.471,1480.58,,892.168,1657.649,1631.54,,892.168,90.88,0.907474,90.7474,90.231
894.328,1477.03,1488.43,,894.328,1620.526,1638.07,,894.328,91.1451,0.908653,90.8653,90.4502
896.489,1412.6,1465.75,,896.489,1547.895,1611.23,,896.489,91.2594,0.909709,90.9709,90.6534
898.651,1340.443,1418.27,,898.651,1475.081,1559.2,,898.651,90.8725,0.909618,90.9618,90.8071
900.815,1253.167,1355.59,,900.815,1377.637,1491.2,,900.815,90.965,0.90906,90.906,90.8748
902.979,1163.454,1279.61,,902.979,1265.567,1401.21,,902.979,91.9314,0.913219,91.3219,90.9543
905.144,1072.503,1194.33,,905.144,1169.907,1305.49,,905.144,91.6742,0.914852,91.4852,91.0854
907.31,987.501,1107.14,,907.31,1070.254,1208.49,,907.31,92.2679,0.916137,91.6137,91.2075
909.477,901.228,1022.96,,909.477,984.826,1114.05,,909.477,91.5114,0.918236,91.8236,91.3599
911.644,823.38,938.478,,911.644,905.197,1026.83,,911.644,90.9614,0.913961,91.3961,91.4768
913.813,752.914,860.07,,913.813,826.463,943.294,,913.813,91.1008,0.911774,91.1774,91.5104
915.983,688.892,786.693,,915.983,763.633,866.24,,915.983,90.2124,0.90817,90.817,91.422
918.154,643.325,724.807,,918.154,707.802,798.941,,918.154,90.8905,0.90721,90.721,91.2683
920.326,601.484,672.121,,920.326,658.335,738.542,,920.326,91.3644,0.910066,91.0066,91.117
922.499,555.189,622.968,,922.499,619.14,687.557,,922.499,89.671,0.90606,90.606,90.9515
924.673,518.075,577.883,,924.673,572.491,640.618,,924.673,90.4949,0.902072,90.2072,90.7638
926.847,478.142,536.627,,926.847,533.023,594.896,,926.847,89.7038,0.902051,90.2051,90.6094
929.023,438.3,495.836,,929.023,495.646,552.506,,929.023,88.43,0.897432,89.7432,90.4552
931.2,400.912,456.273,,931.2,450.36,511.466,,931.2,89.0203,0.892087,89.2087,90.1651
933.377,375.433,420.825,,933.377,421.073,471.837,,933.377,89.161,0.891885,89.1885,89.8395
935.556,346.499,389.693,,935.556,393.514,438.85,,935.556,88.0525,0.887987,88.7987,89.5635
937.736,310.292,358.084,,937.736,366.863,407.672,,937.736,84.5798,0.878362,87.8362,89.1653
939.916,286.448,325.827,,939.916,336.849,378.683,,939.916,85.0375,0.860422,86.0422,88.4966
942.098,270.058,301.071,,942.098,315.743,351.501,,942.098,85.531,0.856531,85.6531,87.7899
944.28,254.85,281.034,,944.28,297.273,329.091,,944.28,85.7293,0.853969,85.3969,87.082
946.464,247.459,264.993,,946.464,286.44,309.688,,946.464,86.3912,0.855678,85.5678,86.4226
948.648,229.795,251.775,,948.648,274.516,295.151,,948.648,83.7091,0.853039,85.3039,85.8621
950.834,219.677,237.391,,950.834,256.955,280.031,,950.834,85.4924,0.847733,84.7733,85.4588
953.02,203.558,224.046,,953.02,245.484,264.651,,953.02,82.9211,0.846571,84.6571,85.2613
955.207,193.983,209.791,,955.207,237.922,252.672,,955.207,81.5322,0.83029,83.029,84.8966
957.396,189.681,201.277,,957.396,231.088,242.928,,957.396,82.0817,0.828546,82.8546,84.3877
959.585,185.197,193.897,,959.585,230.708,237.317,,959.585,80.2733,0.817041,81.7041,83.7362
961.775,181.167,188.272,,961.775,226.509,233.313,,961.775,79.9823,0.80695,80.695,82.9579
963.966,180.046,183.947,,963.966,221.946,228.965,,963.966,81.1215,0.803387,80.3387,82.1259
966.159,171.742,179.675,,966.159,215.292,223.899,,966.159,79.7717,0.802483,80.2483,81.4007
968.352,169.983,175.596,,968.352,215.365,219.144,,968.352,78.9279,0.801278,80.1278,80.8885
970.546,169.587,172.433,,970.546,215.711,216.856,,970.546,78.6177,0.795149,79.5149,80.3383
972.741,171.282,171.704,,972.741,212.511,215.025,,972.741,80.5991,0.798527,79.8527,80.0398
974.937,168.612,170.95,,974.937,210.31,212.698,,974.937,80.1731,0.80372,80.372,79.9699
977.134,167.851,169.175,,977.134,212.746,211.681,,977.134,78.8974,0.799196,79.9196,79.9278
979.332,169.09,169.292,,979.332,213.999,212.673,,979.332,79.0144,0.796023,79.6023,79.8188
981.531,169.6,170.104,,981.531,226.343,215.416,,981.531,74.9305,0.789656,78.9656,79.7319
983.731,177.747,172.232,,983.731,234.142,224.264,,983.731,75.9142,0.767987,76.7987,79.3294
985.932,183.438,177.5,,985.932,233.939,229.218,,985.932,78.4127,0.774374,77.4374,78.7664
988.134,188.765,181.993,,988.134,243.737,234.062,,988.134,77.4462,0.77754,77.754,78.3017
990.336,197.637,188.182,,990.336,255.716,241.973,,990.336,77.2877,0.777696,77.7696,77.9197
992.54,201.508,194.52,,992.54,261.968,250.41,,992.54,76.9208,0.776808,77.6808,77.5638
994.745,208.378,200.339,,994.745,267.673,257.952,,994.745,77.848,0.776651,77.6651,77.5027
996.951,210.794,205.291,,996.951,275.56,265.407,,996.951,76.4966,0.773497,77.3497,77.6244
999.157,220.208,210.845,,999.157,287.447,272.94,,999.157,76.6082,0.772496,77.2496,77.5368
1001.365,228.35,217.899,,1001.365,296.424,282.111,,1001.365,77.0349,0.772389,77.2389,77.4517
1003.573,234.218,224.655,,1003.573,306.674,291.529,,1003.573,76.3736,0.770608,77.0608,77.3273
1005.783,241.63,232.094,,1005.783,321.741,302.439,,1005.783,75.1008,0.767407,76.7407,77.1982
1007.993,247.86,237.87,,1007.993,339.626,317.384,,1007.993,72.9803,0.749471,74.9471,76.8045
1010.205,264.726,246.505,,1010.205,357.42,333.92,,1010.205,74.0658,0.738215,73.8215,76.2088
1012.417,276.682,259.426,,1012.417,379.486,351.275,,1012.417,72.9097,0.738526,73.8526,75.5779
1014.631,287.728,271.447,,1014.631,405.551,372.643,,1014.631,70.9474,0.728438,72.8438,74.8453
1016.845,314.227,285.745,,1016.845,432.98,396.621,,1016.845,72.5731,0.72045,72.045,73.9287
1019.06,340.635,308.031,,1019.06,471.045,424.948,,1019.06,72.3147,0.724868,72.4868,73.2302
1021.277,356.224,328.793,,1021.277,501.291,456.584,,1021.277,71.0613,0.720115,72.0115,72.8254
1023.494,374.994,346.607,,1023.494,523.264,484.683,,1023.494,71.6644,0.71512,71.512,72.3934
1025.712,388.763,364.862,,1025.712,550.418,510.572,,1025.712,70.6305,0.714614,71.4614,72.0121
1027.931,392.623,378.167,,1027.931,568.39,536.22,,1027.931,69.0763,0.705246,70.5246,71.7274
1030.151,402.754,388.567,,1030.151,579.543,554.781,,1030.151,69.4951,0.700398,70.0398,71.3246
1032.372,412.338,398.718,,1032.372,592.787,571.044,,1032.372,69.5592,0.698225,69.8225,70.8456
1034.594,415.558,407.999,,1034.594,595.121,583.612,,1034.594,69.8275,0.699093,69.9093,70.4869
1036.817,408.141,409.757,,1036.817,599.091,590.118,,1036.817,68.1267,0.694365,69.4365,70.1246
1039.041,415.177,411.406,,1039.041,600.696,595.849,,1039.041,69.116,0.690454,69.0454,69.7457
1041.266,413.031,413.574,,1041.266,615.211,602.775,,1041.266,67.1365,0.686117,68.6117,69.4755
1043.492,408.611,411.656,,1043.492,618.997,611.694,,1043.492,66.0118,0.672976,67.2976,69.0606
1045.718,409.553,409.429,,1045.718,613.056,613.932,,1045.718,66.8052,0.666896,66.6896,68.4964
1047.946,403.222,408.571,,1047.946,622.659,616.056,,1047.946,64.7581,0.663205,66.3205,67.8779
1050.175,394.435,403.344,,1050.175,619.807,619.39,,1050.175,63.6384,0.651196,65.1196,67.1725
1052.405,391.92,398.692,,1052.405,617.318,618.355,,1052.405,63.4875,0.644763,64.4763,66.3463
1054.635,387.949,394.057,,1054.635,616.465,617.427,,1054.635,62.9312,0.638226,63.8226,65.5755
1056.867,381.068,388.172,,1056.867,614.339,616.338,,1056.867,62.0289,0.629803,62.9803,64.8652
1059.099,379.367,383.67,,1059.099,611.576,614.856,,1059.099,62.031,0.624,62.4,64.0882
1061.333,375.665,381.297,,1061.333,602.448,611.407,,1061.333,62.3564,0.623638,62.3638,63.4358
1063.567,368.235,376.171,,1063.567,594.774,604.965,,1063.567,61.9118,0.621807,62.1807,62.9532
1065.802,360.44,369.449,,1065.802,591.191,598.552,,1065.802,60.9685,0.617237,61.7237,62.5087
1068.039,355.099,362.705,,1068.039,584.425,593.979,,1068.039,60.7604,0.610636,61.0636,62.0835
1070.276,346.665,357.292,,1070.276,578.385,587.974,,1070.276,59.9367,0.607667,60.7667,61.731
1072.514,340.139,350.797,,1072.514,568.981,580.469,,1072.514,59.7804,0.604334,60.4334,61.3788
1074.753,334.884,344.22,,1074.753,569.85,575.284,,1074.753,58.767,0.598349,59.8349,60.9566
1076.993,327.355,337.01,,1076.993,557.626,569.992,,1076.993,58.7051,0.591253,59.1253,60.4534
1079.234,331.371,331.968,,1079.234,555.402,562.556,,1079.234,59.6633,0.590106,59.0106,59.9948
1081.476,331.839,331.911,,1081.476,553.268,558.451,,1081.476,59.978,0.594343,59.4343,59.6925
1083.719,318.306,327.665,,1083.719,545.496,554.823,,1083.719,58.3517,0.590576,59.0576,59.4376
1085.963,312.681,320.548,,1085.963,533.633,546.855,,1085.963,58.5948,0.586165,58.6165,59.1598
1088.208,308.6,315.885,,1088.208,527.133,538.509,,1088.208,58.5431,0.586592,58.6592,59.0001
1090.454,308.79,311.568,,1090.454,525.905,532.379,,1090.454,58.7159,0.585237,58.5237,58.921
1092.772,307.979,310.943,,1092.772,518.494,526.253,,1092.772,59.3988,0.590862,59.0862,58.8628
1094.985,298.711,307.046,,1094.985,516.445,519.848,,1094.985,57.8398,0.590645,59.0645,58.815
1097.197,294.078,301.912,,1097.197,516.578,518.054,,1097.197,56.9281,0.582781,58.2781,58.7408
1099.409,292.535,296.566,,1099.409,504.074,513.399,,1099.409,58.0341,0.577652,57.7652,58.5903
1101.622,288.99,293.422,,1101.622,501.659,507.463,,1101.622,57.6069,0.578214,57.8214,58.4421
1103.834,280.716,288.825,,1103.834,488.698,501.131,,1103.834,57.4416,0.576348,57.6348,58.2498
1106.047,276.531,283.509,,1106.047,483.282,493.714,,1106.047,57.2194,0.574238,57.4238,57.9358
1108.259,263.981,276.771,,1108.259,474.683,486.317,,1108.259,55.6121,0.569116,56.9116,57.6366
1110.472,261.975,269.229,,1110.472,471.264,479.163,,1110.472,55.5899,0.561874,56.1874,57.3316
1112.684,256.422,265.356,,1112.684,471.027,474.964,,1112.684,54.4389,0.558687,55.8687,56.9797
1114.897,251.139,259.924,,1114.897,459.152,469.441,,1114.897,54.6963,0.553689,55.3689,56.5436
1117.109,244.037,253.37,,1117.109,452.004,461.556,,1117.109,53.99,0.548947,54.8947,56.0672
1119.321,244.569,248.01,,1119.321,444.854,455.114,,1119.321,54.9774,0.54494,54.494,55.5549
1121.534,235.191,243.64,,1121.534,436.522,447.135,,1121.534,53.8784,0.544892,54.4892,55.1719
1123.746,230.538,238.862,,1123.746,433.189,440.343,,1123.746,53.2188,0.542445,54.2445,54.8374
1125.959,221.61,233.067,,1125.959,422.491,435.03,,1125.959,52.4532,0.535749,53.5749,54.4925
1128.171,215.589,225.443,,1128.171,409.246,425.119,,1128.171,52.6796,0.530306,53.0306,54.1058
1130.384,209.203,219.124,,1130.384,401.001,414.743,,1130.384,52.1702,0.528338,52.8338,53.7704
1132.596,200.997,211.361,,1132.596,390.936,405.394,,1132.596,51.4143,0.521373,52.1373,53.3566
1134.809,204.789,206.805,,1134.809,382.688,396.804,,1134.809,53.5133,0.521176,52.1176,52.9149
1137.021,197.216,204.089,,1137.021,371.531,387.432,,1137.021,53.082,0.526773,52.6773,52.65
1139.233,185.368,196.557,,1139.233,365.917,378.168,,1139.233,50.6585,0.519761,51.9761,52.4672
1141.446,176.336,188.848,,1141.446,355.303,369.536,,1141.446,49.6298,0.511041,51.1041,52.1598
1143.658,168.666,181.35,,1143.658,344.505,357.825,,1143.658,48.9589,0.506813,50.6813,51.8176
1145.871,167.176,175.259,,1145.871,340.343,349.602,,1145.871,49.1199,0.501311,50.1311,51.469
1148.083,158.502,168.687,,1148.083,326.18,342.185,,1148.083,48.5934,0.492971,49.2971,50.9203
1150.296,153.827,161.935,,1150.296,320.471,332.139,,1150.296,48.0003,0.487554,48.7554,50.2269
1152.508,143.331,155.409,,1152.508,310.396,323.888,,1152.508,46.1768,0.479825,47.9825,49.5941
1154.721,137.288,147.337,,1154.721,296.048,311.866,,1154.721,46.3736,0.472435,47.2435,48.9265
1156.933,131.243,140.901,,1156.933,294.972,303.517,,1156.933,44.4934,0.464227,46.4227,48.2336
1159.145,123.923,133.279,,1159.145,290.894,299.059,,1159.145,42.6007,0.445662,44.5662,47.3575
1161.358,122.057,126.887,,1161.358,277.725,291.297,,1161.358,43.9489,0.435594,43.5594,46.3604
1163.57,122.734,124.047,,1163.57,272.555,282.078,,1163.57,45.0309,0.439763,43.9763,45.486
1165.783,112.773,121.422,,1165.783,262.111,273.739,,1165.783,43.0249,0.443567,44.3567,44.8688
1167.995,106.537,114.712,,1167.995,255.484,264.346,,1167.995,41.7001,0.433945,43.3945,44.2569
1170.208,108.664,110.796,,1170.208,251.947,258.469,,1170.208,43.1297,0.428663,42.8663,43.7332
1172.42,103.153,107.678,,1172.42,239.228,251.874,,1172.42,43.1191,0.427509,42.7509,43.5049
1174.633,98.185,103.565,,1174.633,233.962,243.314,,1174.633,41.9662,0.425643,42.5643,43.301
1176.845,98.398,101.018,,1176.845,233.696,237.788,,1176.845,42.1051,0.424825,42.4825,42.9698
1179.057,94.973,98.0998,,1179.057,227.519,234.273,,1179.057,41.7429,0.418741,41.8741,42.6176
1181.27,86.82,93.0645,,1181.27,221.706,229.789,,1181.27,39.16,0.405,40.5,42.2362
1183.482,87.211,89.6036,,1183.482,213.346,223.527,,1183.482,40.8777,0.400863,40.0863,41.7282
1185.695,84.601,87.9441,,1185.695,208.713,217.508,,1185.695,40.5346,0.404326,40.4326,41.2734
1187.907,87.172,85.832,,1187.907,205.989,212.148,,1187.907,42.3188,0.404586,40.4586,40.8845
1190.12,86.65,86.3923,,1190.12,204.264,209.467,,1190.12,42.4206,0.412439,41.2439,40.6523
1192.332,80.401,84.8491,,1192.332,196.265,204.049,,1192.332,40.9655,0.415827,41.5827,40.6875
1194.545,83.242,83.7702,,1194.545,189.358,197.741,,1194.545,43.9601,0.423637,42.3637,41.0204
1196.757,83.447,83.0936,,1196.757,193.177,193.961,,1196.757,43.1972,0.428404,42.8404,41.5096
1198.969,87.469,84.029,,1198.969,190.906,193.006,,1198.969,45.8178,0.435369,43.5369,42.0442
1201.182,86.854,84.7955,,1201.182,186.088,190.567,,1201.182,46.6736,0.444963,44.4963,42.7041
1203.394,96.421,88.0447,,1203.394,191.18,189.25,,1203.394,50.4347,0.46523,46.523,43.5182
1205.607,98.625,93.2354,,1205.607,190.818,190.793,,1205.607,51.6854,0.488674,48.8674,44.7557
1207.819,94.92,95.5145,,1207.819,187.182,190.204,,1207.819,50.71,0.50217,50.217,46.1177
1210.032,90.034,93.1527,,1210.032,177.456,185.966,,1210.032,50.736,0.500912,50.0912,47.4523
1212.244,98.512,93.9511,,1212.244,174.367,180.512,,1212.244,56.4969,0.520471,52.0471,48.8081
1214.456,85.991,94.0537,,1214.456,171.188,177.486,,1214.456,50.2319,0.529922,52.9922,50.2818
1216.669,75.289,87.693,,1216.669,160.555,172.299,,1216.669,46.893,0.508958,50.8958,50.9902
1218.881,68.407,79.7532,,1218.881,145.922,163.047,,1218.881,46.8792,0.489141,48.9141,50.9627
1221.094,63.89,72.8357,,1221.094,131.745,151.738,,1221.094,48.4952,0.480009,48.0009,50.6049
1223.306,51.92,65.4307,,1223.306,122.66,140.321,,1223.306,42.3284,0.466291,46.6291,49.9795
1225.519,42.498,56.5149,,1225.519,114.121,128.737,,1225.519,37.2394,0.438995,43.8995,48.4473
1227.731,37.806,47.7256,,1227.731,109.584,119.879,,1227.731,34.4996,0.398115,39.8115,46.3548
1229.944,39.025,43.3926,,1229.944,106.866,114.308,,1229.944,36.5177,0.379611,37.9611,44.139
1232.156,37.156,40.2801,,1232.156,99.241,108.599,,1232.156,37.4402,0.370908,37.0908,42.0332
1234.368,36.108,38.2698,,1234.368,90.436,101.027,,1234.368,39.9266,0.378809,37.8809,40.0867
1236.581,34.428,37.2392,,1236.581,87.178,95.8468,,1236.581,39.4916,0.388528,38.8528,38.7626
1238.793,28.569,33.6506,,1238.793,79.468,89.054,,1238.793,35.9503,0.377867,37.7867,38.036
1241.006,27.987,30.9761,,1241.006,75.305,83.0192,,1241.006,37.1649,0.37312,37.312,37.7783
1242.586,25.639,29.8245,,1242.586,69.901,79.3938,,1242.586,36.679,0.375652,37.5652,